subj_idx,session,block,trial,stimulus,response,rt,prevstim,prevresp,prevrt,prev2resp,prev2stim,prev3stim,prev3resp
1,1,1,1,-1,0,1.702,-1,1,0.626512395304144,1,1,-1,-1
1,1,1,2,1,0,1.491,-1,-1,0.762387817117461,-1,-1,1,1
1,1,1,3,-1,1,1.521,1,-1,0.269649721836387,-1,-1,-1,-1
1,1,1,4,1,1,1.942,-1,1,0.343811458083353,-1,1,-1,-1
1,1,1,5,-1,0,2.002,1,1,1.25347799941547,1,-1,1,-1
1,1,1,6,-1,1,2.122,-1,-1,1.36675639537831,1,1,-1,1
1,1,1,7,1,1,1.891,-1,1,1.5834691363976,-1,-1,1,1
1,1,1,8,1,0,1.491,1,1,1.15440479110277,1,-1,-1,-1
1,1,1,9,1,1,1.991,1,-1,0.269649721836387,1,1,-1,1
1,1,1,10,-1,0,1.632,1,1,1.34624507051102,-1,1,1,1
1,1,1,11,1,1,2.372,-1,-1,0.60603867158875,1,1,1,-1
1,1,1,12,-1,0,1.261,1,1,1.99809346475583,-1,-1,1,1
1,1,1,13,-1,0,1.431,-1,-1,-0.354074894359957,1,1,-1,-1
1,1,1,14,1,1,2.001,-1,-1,0.116741327372302,-1,-1,1,1
1,1,1,15,1,1,2.272,1,1,1.36489639231894,-1,-1,-1,-1
1,1,1,16,-1,0,2.192,1,1,1.83774154409755,1,1,-1,-1
1,1,1,17,1,1,1.792,-1,-1,1.70429370647212,1,1,1,1
1,1,1,18,1,1,1.781,1,1,0.954217110539006,-1,-1,1,1
1,1,1,19,-1,0,1.462,1,1,0.931294700304813,1,1,-1,-1
1,1,1,20,-1,0,1.641,-1,-1,0.196527773840624,1,1,1,1
1,1,1,21,-1,0,1.16,-1,-1,0.626512395304144,-1,-1,1,1
1,1,1,22,1,1,1.611,-1,-1,-0.66487271533197,-1,-1,-1,-1
1,1,1,23,-1,0,1.362,1,1,0.557824172841346,-1,-1,-1,-1
1,1,1,24,-1,0,1.851,-1,-1,-0.0672366206291033,1,1,-1,-1
1,1,1,25,-1,0,1.551,-1,-1,1.07481231968762,-1,-1,1,1
1,1,1,26,1,1,1.661,-1,-1,0.416524629902886,-1,-1,-1,-1
1,1,1,27,-1,0,1.701,1,1,0.671610415562151,-1,-1,-1,-1
1,1,1,28,1,0,1.351,-1,-1,0.760199867571151,1,1,-1,-1
1,1,1,29,1,1,1.751,1,-1,-0.097425327528368,-1,-1,1,1
1,1,1,30,-1,0,1.491,1,1,0.868052023480078,-1,1,-1,-1
1,1,1,31,-1,0,1.931,-1,-1,0.269649721836387,1,1,1,-1
1,1,1,32,-1,1,1.741,-1,-1,1.23233115375764,-1,-1,1,1
1,1,1,33,1,1,2.292,-1,1,0.84673010926207,-1,-1,-1,-1
1,1,1,34,-1,0,1.641,1,1,1.87036923801307,1,-1,-1,-1
1,1,1,37,1,0,1.521,1,-1,-0.0427175679190277,1,1,-1,1
1,1,1,38,-1,0,1.752,1,-1,0.343811458083353,-1,-1,1,1
1,1,1,39,1,0,2.082,-1,-1,0.870177513715314,-1,1,-1,-1
1,1,1,40,-1,0,1.541,1,-1,1.51262406705228,-1,-1,1,-1
1,1,1,41,1,0,1.542,-1,-1,0.392444364535482,-1,1,-1,-1
1,1,1,42,1,0,1.501,1,-1,0.394859412330777,-1,-1,1,-1
1,1,1,45,-1,0,1.732,1,1,-0.0427175679190277,-1,1,-1,-1
1,1,1,46,-1,0,2.031,-1,-1,0.827435413371422,-1,1,1,-1
1,1,1,47,1,0,1.841,-1,-1,1.42029616534004,-1,-1,1,-1
1,1,1,48,-1,0,1.471,1,-1,1.05464544455344,-1,-1,-1,-1
1,1,1,49,1,0,1.942,-1,-1,0.219374872083918,-1,1,-1,-1
1,1,1,50,-1,1,1.652,1,-1,1.25347799941547,-1,-1,1,-1
1,1,1,51,-1,0,1.591,-1,1,0.65138388562954,-1,1,-1,-1
1,1,1,52,1,1,1.401,-1,-1,0.511317683642179,1,-1,1,-1
1,1,1,53,-1,0,1.371,1,1,0.0378655793196328,-1,-1,-1,1
1,1,1,54,-1,0,1.491,-1,-1,-0.0427175679190277,1,1,-1,-1
1,1,1,55,1,0,1.531,-1,-1,0.269649721836387,-1,-1,1,1
1,1,1,56,1,1,1.701,1,-1,0.368207325503183,-1,-1,-1,-1
1,1,1,57,1,1,1.741,1,1,0.760199867571151,-1,1,-1,-1
1,1,1,58,1,0,1.562,1,1,0.84673010926207,1,1,1,-1
1,1,1,59,-1,0,1.351,1,-1,0.44283425209665,1,1,1,1
1,1,1,60,1,1,1.671,-1,-1,-0.097425327528368,-1,1,1,1
1,1,1,61,-1,0,1.932,1,1,0.693956197214476,-1,-1,1,-1
1,1,1,62,-1,0,1.612,-1,-1,1.23425856568052,1,1,-1,-1
1,1,1,63,1,0,1.771,-1,-1,0.560134316288662,-1,-1,1,1
1,1,1,64,1,0,1.581,1,-1,0.910332955476192,-1,-1,-1,-1
1,1,1,65,1,1,1.672,1,-1,0.487844743041116,-1,1,-1,-1
1,1,1,66,-1,0,1.621,1,1,0.69618341597423,-1,1,1,-1
1,1,1,67,1,1,1.831,-1,-1,0.580861350599092,1,1,1,-1
1,1,1,68,1,1,1.791,1,1,1.03436872750982,-1,-1,1,1
1,1,1,69,1,1,1.881,1,1,0.95213907752614,1,1,-1,-1
1,1,1,70,-1,0,1.981,1,1,1.13466563538859,1,1,1,1
1,1,1,71,1,0,1.251,-1,-1,1.32749983430016,1,1,1,1
1,1,1,72,-1,0,1.511,1,-1,-0.383715146841999,-1,-1,1,1
1,1,1,73,-1,0,1.862,-1,-1,0.319254666892035,-1,1,-1,-1
1,1,1,74,1,1,1.682,-1,-1,1.09687042704595,-1,-1,1,-1
1,1,1,75,1,0,1.891,1,1,0.718382623351243,-1,-1,-1,-1
1,1,1,76,1,0,1.761,1,-1,1.15440479110277,1,1,-1,-1
1,1,1,77,1,0,1.181,1,-1,0.889252513838206,-1,1,1,1
1,1,1,78,1,1,2.282,1,-1,-0.598080050584251,-1,1,1,-1
1,1,1,83,1,1,2.442,1,-1,0.0932535772467723,-1,1,1,-1
1,1,1,84,1,0,1.521,1,1,2.10636687239691,1,1,1,-1
1,1,1,85,-1,0,1.891,1,-1,0.343811458083353,1,1,1,1
1,1,1,86,1,1,1.631,-1,-1,1.15440479110277,-1,1,1,1
1,1,1,87,-1,0,1.771,1,1,0.603756847400924,-1,-1,1,-1
1,1,1,88,-1,1,1.541,-1,-1,0.910332955476192,1,1,-1,-1
1,1,1,89,-1,0,1.691,-1,1,0.392444364535482,-1,-1,1,1
1,1,1,90,-1,1,1.101,-1,-1,0.738249355593875,1,-1,-1,-1
1,1,1,91,-1,0,1.54,-1,1,-0.859206940380641,-1,-1,-1,1
1,1,1,92,1,1,1.131,-1,-1,0.390027749036219,1,-1,-1,-1
1,1,1,93,1,0,1.521,1,1,-0.759125750786455,-1,-1,-1,1
1,1,1,94,-1,1,1.191,1,-1,0.343811458083353,1,1,-1,-1
1,1,1,95,1,0,1.712,-1,1,-0.56669035326797,-1,1,1,1
1,1,1,96,1,1,2.042,1,-1,0.784196878000819,1,-1,1,-1
1,1,1,97,-1,1,1.521,1,1,1.44040461418268,-1,1,-1,1
1,1,1,98,1,1,1.872,-1,1,0.343811458083353,1,1,1,-1
1,1,1,99,1,0,1.481,1,1,1.11681046425066,1,-1,1,1
1,1,1,100,1,1,1.841,1,-1,0.244597163995574,1,1,-1,1
1,1,1,101,-1,0,1.691,1,1,1.05464544455344,-1,1,1,1
1,1,1,102,1,1,1.751,-1,-1,0.738249355593875,1,1,1,-1
1,1,1,103,-1,0,1.53,1,1,0.868052023480078,-1,-1,1,1
1,1,1,104,-1,0,1.611,-1,-1,0.365774920290292,1,1,-1,-1
1,1,1,105,-1,1,1.462,-1,-1,0.557824172841346,-1,-1,1,1
1,1,1,106,-1,0,1.191,-1,1,0.196527773840624,-1,-1,-1,-1
1,1,1,107,1,0,1.581,-1,-1,-0.56669035326797,1,-1,-1,-1
1,1,1,108,-1,0,2.122,1,-1,0.487844743041116,-1,-1,-1,1
1,1,1,109,-1,0,1.552,-1,-1,1.5834691363976,-1,1,-1,-1
1,1,1,110,-1,0,1.771,-1,-1,0.418924111807345,-1,-1,1,-1
1,1,1,111,1,1,1.721,-1,-1,0.910332955476192,-1,-1,-1,-1
1,1,1,112,-1,0,1.01,1,1,0.803716389315744,-1,-1,-1,-1
1,1,1,113,-1,1,1.551,-1,-1,-1.18036707116161,1,1,-1,-1
1,1,1,114,1,0,1.591,-1,1,0.416524629902886,-1,-1,1,1
1,1,1,115,-1,0,1.461,1,-1,0.511317683642179,1,-1,-1,-1
1,1,1,116,1,0,1.461,-1,-1,0.193980530466605,-1,1,-1,1
1,1,1,117,1,1,1.621,1,-1,0.193980530466605,-1,-1,1,-1
1,1,1,118,-1,0,1.291,1,1,0.580861350599092,-1,1,-1,-1
1,1,1,119,-1,0,1.231,-1,-1,-0.26654430941556,1,1,1,-1
1,1,2,1,-1,1,1.221,-1,-1,-0.443713158522756,-1,-1,1,1
1,1,2,2,1,0,1.001,-1,1,-0.474078710610598,-1,-1,-1,-1
1,1,2,3,-1,1,0.94,1,-1,-1.2136891876292,1,-1,-1,-1
1,1,2,4,-1,1,1.421,-1,1,-1.44775963181653,-1,1,-1,1
1,1,2,5,-1,0,1.121,-1,1,0.0906346562482365,1,-1,1,-1
1,1,2,6,-1,1,1.331,-1,-1,-0.79218809994184,1,-1,-1,1
1,1,2,7,1,0,2.152,-1,1,-0.152949041991605,-1,-1,-1,1
1,1,2,8,-1,1,1.711,1,-1,1.63573198881412,1,-1,-1,-1
1,1,2,9,1,1,1.261,-1,1,0.782021712267954,-1,1,-1,1
1,1,2,10,1,1,1.621,1,1,-0.354074894359957,1,-1,1,-1
1,1,2,11,1,1,1.421,1,1,0.580861350599092,1,1,-1,1
1,1,2,12,1,1,1.402,1,1,0.0906346562482365,1,1,1,1
1,1,2,13,1,1,2.171,1,1,0.0405218734358168,1,1,1,1
1,1,2,14,1,0,1.491,1,1,1.66845629153198,1,1,1,1
1,1,2,15,-1,1,1.771,1,-1,0.269649721836387,1,1,1,1
1,1,2,16,1,0,1.201,-1,1,0.910332955476192,-1,1,1,1
1,1,2,17,-1,1,1.292,1,-1,-0.535563114685842,1,-1,1,-1
1,1,2,18,-1,0,1.471,-1,1,-0.263661772650648,-1,1,-1,1
1,1,2,19,1,1,1.772,-1,-1,0.219374872083918,1,-1,1,-1
1,1,2,20,1,0,1.461,1,1,0.91243444920735,-1,-1,-1,1
1,1,2,21,1,1,1.592,1,-1,0.193980530466605,1,1,-1,-1
1,1,2,22,1,0,1.261,1,1,0.513656858111781,-1,1,1,1
1,1,2,23,1,1,1.081,1,-1,-0.354074894359957,1,1,1,-1
1,1,2,24,-1,0,1.862,1,1,-0.927454425376561,-1,1,1,1
1,1,2,25,1,0,0.911,-1,-1,1.09687042704595,1,1,1,-1
1,1,2,26,-1,0,1.761,1,-1,-1.56442080962027,-1,-1,1,1
1,1,2,27,1,0,1.291,-1,-1,0.889252513838206,-1,1,-1,-1
1,1,2,28,1,0,1.03,1,-1,-0.26654430941556,-1,-1,1,-1
1,1,2,29,1,1,1.651,1,-1,-1.10736873141104,-1,1,-1,-1
1,1,2,30,1,1,1.111,1,1,0.649129694797186,-1,1,1,-1
1,1,2,31,-1,0,1.151,1,1,-0.825546710653121,1,1,1,-1
1,1,2,32,1,0,2.081,-1,-1,-0.693869109793073,1,1,1,1
1,1,2,33,1,1,1.741,1,-1,1.51083555102178,-1,-1,1,1
1,1,2,34,1,1,1.721,1,1,0.84673010926207,-1,1,-1,-1
1,1,2,35,-1,0,1.071,1,1,0.803716389315744,1,1,1,-1
1,1,2,36,-1,0,1.161,-1,-1,-0.962053150672416,1,1,1,1
1,1,2,37,-1,1,1.601,-1,-1,-0.661664790923315,-1,-1,1,1
1,1,2,38,-1,0,1.361,-1,1,0.534643549715221,-1,-1,-1,-1
1,1,2,39,1,0,1.171,-1,-1,-0.0699709549759631,1,-1,-1,-1
1,1,2,40,-1,1,1.691,1,-1,-0.629736670298611,-1,-1,-1,1
1,1,2,41,1,1,1.091,-1,1,0.738249355593875,-1,1,-1,-1
1,1,2,42,1,1,0.801,1,1,-0.89317429323457,1,-1,1,-1
1,1,2,43,-1,1,0.93,1,1,-2.04347746497081,1,1,-1,1
1,1,2,44,-1,0,0.56,-1,1,-1.48757601185,1,1,1,1
1,1,2,45,1,1,1.921,-1,-1,-3.37595612497789,1,-1,1,1
1,1,2,46,-1,0,1.101,1,1,1.21300195121777,-1,-1,-1,1
1,1,2,47,1,1,0.911,-1,-1,-0.859206940380641,1,1,-1,-1
1,1,2,48,1,0,1.571,1,1,-1.56442080962027,-1,-1,1,1
1,1,2,49,1,0,0.95,1,-1,0.464222861465342,1,1,-1,-1
1,1,2,50,-1,1,0.831,1,-1,-1.40836459704365,-1,1,1,1
1,1,2,51,1,1,1.381,-1,1,-1.90659454381715,-1,1,1,-1
1,1,2,52,1,0,1.181,1,1,-0.015662245017899,1,-1,1,-1
1,1,2,53,-1,1,1.05,1,-1,-0.598080050584251,1,1,-1,1
1,1,2,54,1,1,1.191,-1,1,-1.03577429326884,-1,1,1,1
1,1,2,55,-1,0,1.842,1,1,-0.56669035326797,1,-1,1,-1
1,1,2,56,-1,1,1.401,-1,-1,1.05666705527154,1,1,-1,1
1,1,2,57,-1,0,1.2,-1,1,0.0378655793196328,-1,-1,1,1
1,1,2,58,-1,0,1.101,-1,-1,-0.53866415280425,1,-1,-1,-1
1,1,2,59,-1,0,1.041,-1,-1,-0.859206940380641,-1,-1,-1,1
1,1,2,60,1,0,1.051,-1,-1,-1.06782151595523,-1,-1,-1,-1
1,1,2,61,1,0,0.9,1,-1,-1.03223046049682,-1,-1,-1,-1
1,1,2,62,1,0,1.17,1,-1,-1.60964583460082,-1,1,-1,-1
1,1,2,63,-1,1,0.89,1,-1,-0.632917188258735,-1,1,1,-1
1,1,2,64,1,1,1.931,-1,1,-1.65124175388705,-1,1,1,-1
1,1,2,65,1,0,1.31,1,1,1.23233115375764,1,-1,1,-1
1,1,2,66,-1,1,1.101,1,-1,-0.212154164817625,1,1,-1,1
1,1,2,67,1,0,1.652,-1,1,-0.859206940380641,-1,1,1,1
1,1,2,68,1,1,1.101,1,-1,0.65138388562954,1,-1,1,-1
1,1,2,69,1,1,0.951,1,1,-0.859206940380641,-1,1,-1,1
1,1,2,70,-1,0,1.781,1,1,-1.40444792540843,1,1,1,-1
1,1,2,71,-1,1,0.981,-1,-1,0.931294700304813,1,1,1,1
1,1,2,72,1,0,1.011,-1,1,-1.28882384779083,-1,-1,1,1
1,1,2,73,1,0,1.221,1,-1,-1.1766829580001,1,-1,-1,-1
1,1,2,74,1,0,1.431,1,-1,-0.474078710610598,-1,1,-1,1
1,1,2,75,-1,1,0.89,1,-1,0.116741327372302,-1,1,1,-1
1,1,2,76,-1,1,0.781,-1,1,-1.65124175388705,-1,1,1,-1
1,1,2,77,1,1,0.79,-1,1,-2.13761133091086,1,-1,1,-1
1,1,2,78,1,1,0.941,1,1,-2.09495629467698,1,-1,-1,1
1,1,2,79,1,1,1.051,1,1,-1.44380131560535,1,1,-1,1
1,1,2,80,-1,1,1.141,1,1,-1.03223046049682,1,1,1,1
1,1,2,81,-1,1,0.77,-1,1,-0.726354447212555,1,1,1,1
1,1,2,82,-1,1,0.821,-1,1,-2.19041783397129,1,-1,1,1
1,1,2,83,-1,1,0.701,-1,1,-1.95166526436433,1,-1,-1,1
1,1,2,84,1,1,0.64,-1,1,-2.53992370957169,1,-1,-1,1
1,1,2,85,1,1,2.151,1,1,-2.8788459845133,1,-1,-1,1
1,1,2,86,-1,0,1,1,1,1.63400166294244,1,1,-1,1
1,1,2,87,-1,0,1.671,-1,-1,-1.21741012351707,1,1,1,1
1,1,2,88,1,1,0.991,-1,-1,0.693956197214476,-1,-1,1,1
1,1,2,89,-1,0,1.461,1,1,-1.25106697195998,-1,-1,-1,-1
1,1,2,90,-1,0,1.231,-1,-1,0.193980530466605,1,1,-1,-1
1,1,2,91,1,1,1.872,-1,-1,-0.443713158522756,-1,-1,1,1
1,1,2,92,1,1,2.021,1,1,1.11681046425066,-1,-1,-1,-1
1,1,2,93,1,1,1.951,1,1,1.40192102415566,1,1,-1,-1
1,1,2,94,-1,0,0.92,1,1,1.27069106086109,1,1,1,1
1,1,2,95,-1,1,1.401,-1,-1,-1.52782284757521,1,1,1,1
1,1,2,96,-1,0,2.062,-1,1,0.0378655793196328,-1,-1,1,1
1,1,2,97,-1,0,0.83,-1,-1,1.4766894632782,1,-1,-1,-1
1,1,2,98,-1,0,1.762,-1,-1,-1.91107714044048,-1,-1,-1,1
1,1,2,99,-1,0,1.111,-1,-1,0.891365937707563,-1,-1,-1,-1
1,1,2,100,1,1,1.571,-1,-1,-0.825546710653121,-1,-1,-1,-1
1,1,2,101,-1,0,1.841,1,1,0.464222861465342,-1,-1,-1,-1
1,1,2,102,1,0,0.91,-1,-1,1.05464544455344,1,1,-1,-1
1,1,2,103,-1,0,2.141,1,-1,-1.56850954813769,-1,-1,1,1
1,1,2,104,1,1,0.931,-1,-1,1.61665402649174,-1,1,-1,-1
1,1,2,105,-1,0,1.131,1,1,-1.48357515596156,-1,-1,1,-1
1,1,2,106,-1,0,1.091,-1,-1,-0.759125750786455,1,1,-1,-1
1,1,2,107,-1,0,1.631,-1,-1,-0.89317429323457,-1,-1,1,1
1,1,2,108,-1,0,1.951,-1,-1,0.603756847400924,-1,-1,-1,-1
1,1,2,109,-1,0,1.882,-1,-1,1.27069106086109,-1,-1,-1,-1
1,1,2,110,1,1,1.451,-1,-1,1.13664426740215,-1,-1,-1,-1
1,1,2,111,-1,0,1.882,1,1,0.168411775795819,-1,-1,-1,-1
1,1,2,112,1,0,0.831,-1,-1,1.13664426740215,1,1,-1,-1
1,1,2,113,-1,0,0.971,1,-1,-1.90659454381715,-1,-1,1,1
1,1,2,114,1,1,1.801,-1,-1,-1.32696758359203,-1,1,-1,-1
1,1,2,115,-1,0,0.77,1,1,0.972867394139305,-1,-1,1,-1
1,1,2,116,1,1,0.71,-1,-1,-2.19041783397129,1,1,-1,-1
1,1,2,117,-1,0,1.141,1,1,-2.49243169141934,-1,-1,1,1
1,1,2,118,1,1,0.691,-1,-1,-0.726354447212555,1,1,-1,-1
1,1,2,119,-1,0,1.161,1,1,-2.59341307868886,-1,-1,1,1
1,1,3,1,1,1,1.241,-1,-1,0.671610415562151,1,1,-1,-1
1,1,3,2,1,0,0.901,1,1,-0.413593285113893,-1,-1,1,1
1,1,3,3,-1,0,1.36,1,-1,-1.60551169087126,1,1,-1,-1
1,1,3,4,-1,0,1.13,-1,-1,-0.0727072991240665,-1,1,1,1
1,1,3,5,1,1,1.251,-1,-1,-0.762418803673348,-1,-1,1,-1
1,1,3,6,1,1,1.301,1,1,-0.383715146841999,-1,-1,-1,-1
1,1,3,7,1,1,1.711,1,1,-0.237818888763354,1,1,-1,-1
1,1,3,8,-1,0,1.071,1,1,0.782021712267954,1,1,1,1
1,1,3,9,1,1,1.531,-1,-1,-0.962053150672416,1,1,1,1
1,1,3,10,-1,0,1.241,1,1,0.368207325503183,-1,-1,1,1
1,1,3,11,-1,0,1.571,-1,-1,-0.413593285113893,1,1,-1,-1
1,1,3,12,1,1,1.641,-1,-1,0.464222861465342,-1,-1,1,1
1,1,3,13,1,0,1.291,1,1,0.626512395304144,-1,-1,-1,-1
1,1,3,14,-1,0,1.001,1,-1,-0.26654430941556,1,1,-1,-1
1,1,3,15,1,1,1.532,-1,-1,-1.2136891876292,-1,1,1,1
1,1,3,16,1,0,1.071,1,1,0.37063814246574,-1,-1,1,-1
1,1,3,17,1,0,1.131,1,-1,-0.962053150672416,1,1,-1,-1
1,1,3,18,1,0,0.951,1,-1,-0.759125750786455,-1,1,1,1
1,1,3,19,-1,0,1.571,1,-1,-1.40444792540843,-1,1,1,-1
1,1,3,20,1,0,1.551,-1,-1,0.464222861465342,-1,1,1,-1
1,1,3,21,1,1,1.201,1,-1,0.416524629902886,-1,-1,1,-1
1,1,3,22,1,1,1.811,1,1,-0.535563114685842,-1,1,-1,-1
1,1,3,23,-1,0,1.041,1,1,0.993480935432267,1,1,1,-1
1,1,3,24,1,1,1.812,-1,-1,-1.06782151595523,1,1,1,1
1,1,3,25,-1,0,1.871,1,1,0.995536025766481,-1,-1,1,1
1,1,3,26,1,1,1.861,-1,-1,1.1148212597973,1,1,-1,-1
1,1,3,27,1,1,1.761,1,1,1.09487053656224,-1,-1,1,1
1,1,3,28,-1,1,1.701,1,1,0.889252513838206,1,1,-1,-1
1,1,3,29,-1,0,1.792,-1,1,0.760199867571151,1,1,1,1
1,1,3,30,1,0,1.711,-1,-1,0.954217110539006,1,-1,1,1
1,1,3,33,-1,0,1.301,-1,-1,-1.40444792540843,-1,-1,-1,1
1,1,3,34,1,0,1.091,-1,-1,-0.237818888763354,-1,1,-1,-1
1,1,3,35,1,0,1.051,1,-1,-0.89317429323457,-1,-1,1,-1
1,1,3,36,-1,0,1.652,1,-1,-1.03223046049682,-1,1,-1,-1
1,1,3,37,-1,1,0.881,-1,-1,0.65138388562954,-1,1,1,-1
1,1,3,38,1,1,1.191,-1,1,-1.68907964529994,-1,-1,1,-1
1,1,3,39,-1,1,1.371,1,1,-0.56669035326797,1,-1,-1,-1
1,1,3,40,-1,0,1.521,-1,1,-0.0427175679190277,1,1,-1,1
1,1,3,41,-1,0,1.101,-1,-1,0.343811458083353,1,-1,1,1
1,1,3,42,-1,0,1.471,-1,-1,-0.859206940380641,-1,-1,-1,1
1,1,3,43,1,1,1.141,-1,-1,0.219374872083918,-1,-1,-1,-1
1,1,3,44,-1,1,1.181,1,1,-0.726354447212555,-1,-1,-1,-1
1,1,3,45,1,1,1.051,-1,1,-0.598080050584251,1,1,-1,-1
1,1,3,46,1,0,1.571,1,1,-1.03223046049682,1,-1,1,1
1,1,3,47,1,1,0.731,1,-1,0.464222861465342,1,1,-1,1
1,1,3,48,1,0,1.311,1,1,-2.38391780916688,-1,1,1,1
1,1,3,49,1,0,0.931,1,-1,-0.209313419890858,1,1,1,-1
1,1,3,50,-1,1,1.241,1,-1,-1.48357515596156,-1,1,1,1
1,1,3,51,-1,0,1.411,-1,1,-0.413593285113893,-1,1,1,-1
1,1,3,52,-1,0,2.092,-1,-1,0.0643436144506365,1,-1,1,-1
1,1,3,53,-1,0,1.281,-1,-1,1.53046212727551,-1,-1,-1,1
1,1,3,54,1,0,1.171,-1,-1,-0.295493102610757,-1,-1,-1,-1
1,1,3,55,-1,0,0.981,1,-1,-0.629736670298611,-1,-1,-1,-1
1,1,3,56,1,1,1.481,-1,-1,-1.28882384779083,-1,1,-1,-1
1,1,3,57,1,1,1.722,1,1,0.244597163995574,-1,-1,1,-1
1,1,3,58,-1,0,1.181,1,1,0.805878919754647,1,1,-1,-1
1,1,3,59,1,1,1.031,-1,-1,-0.598080050584251,1,1,1,1
1,1,3,60,-1,0,1.381,1,1,-1.1037561197293,-1,-1,1,1
1,1,3,61,1,1,1.11,-1,-1,-0.015662245017899,1,1,-1,-1
1,1,3,62,-1,0,1.311,1,1,-0.828899071119085,-1,-1,1,1
1,1,3,63,1,0,1.29,-1,-1,-0.209313419890858,1,1,-1,-1
1,1,3,64,-1,0,1.25,1,-1,-0.269429079839559,-1,-1,1,1
1,1,3,65,1,0,1.751,-1,-1,-0.386692193018952,-1,1,-1,-1
1,1,3,66,1,0,1.04,1,-1,0.868052023480078,-1,-1,1,-1
1,1,3,67,1,1,1.231,1,-1,-1.07139940767309,-1,1,-1,-1
1,1,3,68,-1,0,1.09,1,1,-0.443713158522756,-1,1,1,-1
1,1,3,69,-1,0,1.02,-1,-1,-0.896588136707075,1,1,1,-1
1,1,3,70,1,0,1.05,-1,-1,-1.14368898092064,-1,-1,1,1
1,1,3,71,1,0,1.371,1,-1,-1.03577429326884,-1,-1,-1,-1
1,1,3,72,-1,0,1.361,1,-1,-0.0427175679190277,-1,1,-1,-1
1,1,3,73,1,1,1.371,-1,-1,-0.0699709549759631,-1,1,1,-1
1,1,3,74,-1,0,1.691,1,1,-0.0427175679190277,-1,-1,1,-1
1,1,3,75,-1,0,1.031,-1,-1,0.738249355593875,1,1,-1,-1
1,1,3,76,-1,0,2.242,-1,-1,-1.1037561197293,-1,-1,1,1
1,1,3,77,-1,1,1.531,-1,-1,1.78825748306567,-1,-1,-1,-1
1,1,3,78,-1,0,0.831,-1,1,0.368207325503183,-1,-1,-1,-1
1,1,3,79,-1,0,1.421,-1,-1,-1.90659454381715,1,-1,-1,-1
1,1,3,80,1,1,1.671,-1,-1,0.0906346562482365,-1,-1,-1,1
1,1,3,81,-1,1,0.83,1,1,0.693956197214476,-1,-1,-1,-1
1,1,3,82,-1,0,1.31,-1,1,-1.91107714044048,1,1,-1,-1
1,1,3,83,1,1,1.191,-1,-1,-0.212154164817625,1,-1,1,1
1,1,3,84,1,1,0.751,1,1,-0.56669035326797,-1,-1,-1,1
1,1,3,85,1,0,1.751,1,1,-2.28343138346597,1,1,-1,-1
1,1,3,86,-1,0,1.591,1,-1,0.868052023480078,1,1,1,1
1,1,3,87,-1,0,1.461,-1,-1,0.511317683642179,-1,1,1,1
1,1,3,88,1,1,1.771,-1,-1,0.193980530466605,-1,-1,1,-1
1,1,3,89,-1,0,1.101,1,1,0.910332955476192,-1,-1,-1,-1
1,1,3,90,-1,0,1.642,-1,-1,-0.859206940380641,1,1,-1,-1
1,1,3,91,-1,0,1.211,-1,-1,0.628780318643177,-1,-1,1,1
1,1,3,92,-1,0,0.981,-1,-1,-0.504693982212932,-1,-1,-1,-1
1,1,3,93,1,1,1.221,-1,-1,-1.28882384779083,-1,-1,-1,-1
1,1,3,94,-1,0,1.351,1,1,-0.474078710610598,-1,-1,-1,-1
1,1,3,95,1,1,0.8,-1,-1,-0.097425327528368,1,1,-1,-1
1,1,3,96,1,0,1.411,1,1,-2.04812805401518,-1,-1,1,1
1,1,3,97,1,1,1.411,1,-1,0.0643436144506365,1,1,-1,-1
1,1,3,98,1,1,1.901,1,1,0.0643436144506365,-1,1,1,1
1,1,3,99,-1,0,1.101,1,1,1.17403983686193,1,1,1,-1
1,1,3,100,1,1,1.592,-1,-1,-0.859206940380641,1,1,1,1
1,1,3,101,-1,0,1.561,1,1,0.513656858111781,-1,-1,1,1
1,1,3,102,-1,0,1.24,-1,-1,0.440450136712004,1,1,-1,-1
1,1,3,103,-1,0,1.091,-1,-1,-0.416594330053427,-1,-1,1,1
1,1,3,104,1,1,1.441,-1,-1,-0.89317429323457,-1,-1,-1,-1
1,1,3,107,1,0,1.241,-1,-1,-1.52377852773597,-1,-1,-1,-1
1,1,3,108,1,0,0.991,1,-1,-0.413593285113893,1,1,-1,-1
1,1,3,109,-1,0,1.301,1,-1,-1.25106697195998,-1,1,1,1
1,1,3,110,1,0,1.05,-1,-1,-0.237818888763354,-1,1,1,-1
1,1,3,111,-1,0,1.071,1,-1,-1.03577429326884,-1,-1,1,-1
1,1,3,112,1,0,1.471,-1,-1,-0.962053150672416,-1,1,-1,-1
1,1,3,113,1,1,1.531,1,-1,0.219374872083918,-1,-1,1,-1
1,1,3,114,-1,0,1.111,1,1,0.368207325503183,-1,1,-1,-1
1,1,3,115,1,1,1.241,-1,-1,-0.825546710653121,1,1,1,-1
1,1,3,116,1,1,1.201,1,1,-0.413593285113893,-1,-1,1,1
1,1,3,117,1,1,1.031,1,1,-0.535563114685842,1,1,-1,-1
1,1,3,118,-1,0,0.821,1,1,-1.1037561197293,1,1,1,1
1,1,3,119,-1,0,1.851,-1,-1,-1.95166526436433,1,1,1,1
1,1,4,1,-1,0,1.951,1,1,0.343811458083353,-1,-1,1,1
1,1,4,2,1,1,1.091,-1,-1,1.27069106086109,-1,-1,-1,-1
1,1,4,3,1,0,1.391,1,1,-0.89317429323457,-1,-1,-1,-1
1,1,4,4,1,1,1.641,1,-1,0.0111978718335166,1,1,-1,-1
1,1,4,5,-1,0,1.1,1,1,0.626512395304144,-1,1,1,1
1,1,4,6,-1,0,1.151,-1,-1,-0.862589763008579,1,1,1,-1
1,1,4,7,1,1,0.71,-1,-1,-0.693869109793073,-1,-1,1,1
1,1,4,8,1,1,1.1,1,1,-2.49243169141934,-1,-1,-1,-1
1,1,4,9,1,1,1.181,1,1,-0.862589763008579,1,1,-1,-1
1,1,4,10,-1,0,1.12,1,1,-0.598080050584251,1,1,1,1
1,1,4,11,1,1,1.261,-1,-1,-0.795510541970384,1,1,1,1
1,1,4,12,-1,0,1.812,1,1,-0.354074894359957,-1,-1,1,1
1,1,4,13,1,0,0.801,-1,-1,0.995536025766481,1,1,-1,-1
1,1,4,14,-1,0,1.241,1,-1,-2.04347746497081,-1,-1,1,1
1,1,4,15,-1,0,1.081,-1,-1,-0.413593285113893,-1,1,-1,-1
1,1,4,16,-1,0,1.181,-1,-1,-0.927454425376561,-1,-1,1,-1
1,1,4,17,-1,0,1.631,-1,-1,-0.598080050584251,-1,-1,-1,-1
1,1,4,18,-1,0,1.181,-1,-1,0.603756847400924,-1,-1,-1,-1
1,1,4,19,1,1,1,-1,-1,-0.598080050584251,-1,-1,-1,-1
1,1,4,20,-1,0,0.99,1,1,-1.21741012351707,-1,-1,-1,-1
1,1,4,21,-1,0,1.431,-1,-1,-1.25482547409234,1,1,-1,-1
1,1,4,22,-1,0,1.071,-1,-1,0.116741327372302,-1,-1,1,1
1,1,4,23,1,1,0.911,-1,-1,-0.962053150672416,-1,-1,-1,-1
1,1,4,24,-1,0,1.331,1,1,-1.56442080962027,-1,-1,-1,-1
1,1,4,25,1,1,1.081,-1,-1,-0.152949041991605,1,1,-1,-1
1,1,4,26,1,1,1.832,1,1,-0.927454425376561,-1,-1,1,1
1,1,4,27,1,0,0.72,1,1,1.03640137623402,1,1,-1,-1
1,1,4,28,-1,0,1.041,1,-1,-2.44036376509894,1,1,1,1
1,1,4,31,1,0,1.791,-1,-1,2.13673242448475,-1,1,1,1
1,1,4,32,-1,0,1.911,1,-1,0.95213907752614,-1,-1,1,-1
1,1,4,33,1,1,1.301,-1,-1,1.19357186511804,-1,1,-1,-1
1,1,4,34,1,0,1.441,1,1,-0.237818888763354,-1,-1,1,-1
1,1,4,35,-1,0,0.99,1,-1,0.142666195690862,1,1,-1,-1
1,1,4,36,1,1,1.641,-1,-1,-1.25482547409234,-1,1,1,1
1,1,4,37,1,1,1.091,1,1,0.626512395304144,-1,-1,1,-1
1,1,4,38,-1,0,0.641,1,1,-0.89317429323457,1,1,-1,-1
1,1,4,39,1,1,1.892,-1,-1,-2.87303365539212,1,1,1,1
1,1,4,40,1,1,1.021,1,1,1.1563729624655,-1,-1,1,1
1,1,4,41,-1,0,1.071,1,1,-1.14004096882482,1,1,-1,-1
1,1,4,42,-1,1,1.041,-1,-1,-0.962053150672416,1,1,1,1
1,1,4,43,1,1,1.461,-1,1,-1.06782151595523,-1,-1,1,1
1,1,4,44,1,1,1.291,1,1,0.193980530466605,1,-1,-1,-1
1,1,4,45,-1,1,1.951,1,1,-0.26654430941556,1,1,-1,1
1,1,4,46,1,1,1.611,-1,1,1.27069106086109,1,1,1,1
1,1,4,47,1,1,1.321,1,1,0.557824172841346,1,-1,1,1
1,1,4,48,-1,0,1.352,1,1,-0.181024560017229,1,1,-1,1
1,1,4,49,1,1,1.091,-1,-1,-0.0946707613310056,1,1,1,1
1,1,4,50,-1,0,1.321,1,1,-0.89317429323457,-1,-1,1,1
1,1,4,51,1,1,1.642,-1,-1,-0.181024560017229,1,1,-1,-1
1,1,4,52,-1,0,1.011,1,1,0.628780318643177,-1,-1,1,1
1,1,4,53,-1,1,1.661,-1,-1,-1.1766829580001,1,1,-1,-1
1,1,4,54,1,1,1.791,-1,1,0.671610415562151,-1,-1,1,1
1,1,4,55,-1,0,1.501,1,1,0.95213907752614,1,-1,-1,-1
1,1,4,56,-1,0,1.871,-1,-1,0.294534814803947,1,1,-1,1
1,1,4,57,1,1,1.601,-1,-1,1.1148212597973,-1,-1,1,1
1,1,4,58,1,1,1.02,1,1,0.534643549715221,-1,-1,-1,-1
1,1,4,59,-1,0,1.431,1,1,-1.14368898092064,1,1,-1,-1
1,1,4,60,1,1,1.091,-1,-1,0.116741327372302,1,1,1,1
1,1,4,61,-1,0,0.951,1,1,-0.89317429323457,-1,-1,1,1
1,1,4,62,-1,0,1.031,-1,-1,-1.40444792540843,1,1,-1,-1
1,1,4,63,1,1,0.961,-1,-1,-1.1037561197293,-1,-1,1,1
1,1,4,64,1,1,1.481,1,1,-1.36550618909918,-1,-1,-1,-1
1,1,4,65,1,1,1.751,1,1,0.244597163995574,1,1,-1,-1
1,1,4,66,-1,0,1.191,1,1,0.868052023480078,1,1,1,1
1,1,4,67,-1,1,0.84,-1,-1,-0.56669035326797,1,1,1,1
1,1,4,68,-1,0,2.041,-1,1,-1.86649222376696,-1,-1,1,1
1,1,4,69,1,0,0.93,-1,-1,1.43858105497606,1,-1,-1,-1
1,1,4,70,1,1,1.611,1,-1,-1.48757601185,-1,-1,-1,1
1,1,4,71,1,1,1.652,1,1,0.557824172841346,-1,1,-1,-1
1,1,4,72,1,0,0.951,1,1,0.65138388562954,1,1,1,-1
1,1,4,73,-1,0,1.201,1,-1,-1.40444792540843,1,1,1,1
1,1,4,74,-1,1,1.531,-1,-1,-0.535563114685842,-1,1,1,1
1,1,4,75,-1,0,1.611,-1,1,0.368207325503183,-1,-1,1,-1
1,1,4,76,1,0,0.911,-1,-1,0.557824172841346,1,-1,-1,-1
1,1,4,77,-1,0,1.541,1,-1,-1.56442080962027,-1,-1,-1,1
1,1,4,78,1,0,1.05,-1,-1,0.392444364535482,-1,1,-1,-1
1,1,4,79,1,0,1.501,1,-1,-1.03577429326884,-1,-1,1,-1
1,1,4,80,-1,0,1.891,1,-1,0.294534814803947,-1,1,-1,-1
1,1,4,81,1,0,1.221,-1,-1,1.15440479110277,-1,1,1,-1
1,1,4,82,1,1,1.371,1,-1,-0.474078710610598,-1,-1,1,-1
1,1,4,83,-1,0,1.821,1,1,-0.0427175679190277,-1,1,-1,-1
1,1,4,84,1,0,1.001,-1,-1,1.01398096546004,1,1,1,-1
1,1,4,85,-1,1,1.181,1,-1,-1.2136891876292,-1,-1,1,1
1,1,4,86,-1,0,1.861,-1,1,-0.598080050584251,-1,1,-1,-1
1,1,4,87,-1,0,1.26,-1,-1,1.09487053656224,1,-1,1,-1
1,1,4,88,1,0,1.311,-1,-1,-0.357028322556025,-1,-1,-1,1
1,1,4,89,-1,0,1.941,1,-1,-0.209313419890858,-1,-1,-1,-1
1,1,4,90,1,1,1.411,-1,-1,1.25156051493018,-1,1,-1,-1
1,1,4,91,-1,0,2.252,1,1,0.0643436144506365,-1,-1,1,-1
1,1,4,92,1,0,1.491,-1,-1,1.80482536108231,1,1,-1,-1
1,1,4,93,-1,0,1.842,1,-1,0.269649721836387,-1,-1,1,1
1,1,4,94,1,1,2.041,-1,-1,1.05666705527154,-1,1,-1,-1
1,1,4,95,-1,0,1.12,1,1,1.43858105497606,-1,-1,1,-1
1,1,4,96,1,1,1.651,-1,-1,-0.795510541970384,1,1,-1,-1
1,1,4,97,1,0,1.592,1,1,0.649129694797186,-1,-1,1,1
1,1,4,98,1,1,1.631,1,-1,0.513656858111781,1,1,-1,-1
1,1,4,99,-1,0,1.401,1,1,0.603756847400924,-1,1,1,1
1,1,4,100,-1,0,1.582,-1,-1,0.0378655793196328,1,1,1,-1
1,1,4,101,-1,0,1.731,-1,-1,0.490198708371451,-1,-1,1,1
1,1,4,102,-1,0,1.971,-1,-1,0.825285372280249,-1,-1,-1,-1
1,1,4,103,1,0,1.441,-1,-1,1.30865973312967,-1,-1,-1,-1
1,1,4,104,1,0,1.911,1,-1,0.142666195690862,-1,-1,-1,-1
1,1,4,105,-1,0,1.361,1,-1,1.19357186511804,-1,1,-1,-1
1,1,4,106,-1,1,1.441,-1,-1,-0.0699709549759631,-1,1,1,-1
1,1,4,107,1,1,1.311,-1,1,0.142666195690862,-1,-1,1,-1
1,1,4,108,1,0,1.661,1,1,-0.209313419890858,1,-1,-1,-1
1,1,4,109,-1,0,1.181,1,-1,0.671610415562151,1,1,-1,1
1,1,4,110,1,1,2.052,-1,-1,-0.598080050584251,-1,1,1,1
1,1,4,111,1,0,1.581,1,1,1.45859124559292,-1,-1,1,-1
1,1,4,112,-1,0,1.622,1,-1,0.487844743041116,1,1,-1,-1
1,1,4,113,-1,0,1.621,-1,-1,0.583157247092389,-1,1,1,1
1,1,4,114,1,1,1.771,-1,-1,0.580861350599092,-1,-1,1,-1
1,1,4,115,-1,0,2.262,1,1,0.910332955476192,-1,-1,-1,-1
1,1,4,116,1,1,2.122,-1,-1,1.82131983222105,1,1,-1,-1
1,1,4,117,-1,0,1.591,1,1,1.5834691363976,-1,-1,1,1
1,1,4,118,-1,0,1.611,-1,-1,0.511317683642179,1,1,-1,-1
1,1,4,119,-1,1,2.261,-1,-1,0.557824172841346,-1,-1,1,1
1,1,5,1,1,1,1.631,-1,-1,0.803716389315744,-1,-1,-1,-1
1,1,5,2,-1,1,1.411,1,1,0.603756847400924,1,-1,-1,-1
1,1,5,3,-1,1,1.551,-1,1,0.0643436144506365,1,1,-1,1
1,1,5,4,-1,0,1.911,-1,1,0.416524629902886,1,-1,1,1
1,1,5,5,1,1,1.441,-1,-1,1.19357186511804,1,-1,-1,1
1,1,5,6,-1,0,1.952,1,1,0.142666195690862,-1,-1,-1,1
1,1,5,7,-1,0,1.711,-1,-1,1.27259871965041,1,1,-1,-1
1,1,5,10,1,0,1.281,1,-1,0.0111978718335166,-1,-1,1,1
1,1,5,11,1,1,2.102,1,-1,-0.295493102610757,-1,-1,-1,-1
1,1,5,12,1,1,1.842,1,1,1.54821512251069,-1,1,-1,-1
1,1,5,13,-1,0,1.311,1,1,1.05666705527154,1,1,1,-1
1,1,5,14,1,1,1.131,-1,-1,-0.209313419890858,1,1,1,1
1,1,5,15,1,0,1.552,1,1,-0.759125750786455,-1,-1,1,1
1,1,5,16,1,1,1.351,1,-1,0.418924111807345,1,1,-1,-1
1,1,5,17,1,1,1.831,1,1,-0.097425327528368,-1,1,1,1
1,1,5,18,1,1,1.732,1,1,1.03436872750982,1,1,1,-1
1,1,5,19,-1,0,1.131,1,1,0.827435413371422,1,1,1,1
1,1,5,20,-1,0,1.141,-1,-1,-0.759125750786455,1,1,1,1
1,1,5,21,1,1,1.792,-1,-1,-0.726354447212555,-1,-1,1,1
1,1,5,22,-1,0,2.072,1,1,0.954217110539006,-1,-1,-1,-1
1,1,5,23,1,1,1.762,-1,-1,1.49470012272229,1,1,-1,-1
1,1,5,24,-1,0,1.962,1,1,0.891365937707563,-1,-1,1,1
1,1,5,25,-1,0,1.291,-1,-1,1.29162173521668,1,1,-1,-1
1,1,5,26,-1,0,1.912,-1,-1,-0.26654430941556,-1,-1,1,1
1,1,5,27,-1,1,2.351,-1,-1,1.19551944352809,-1,-1,-1,-1
1,1,5,28,-1,0,1.211,-1,1,1.96498771325771,-1,-1,-1,-1
1,1,5,29,-1,0,1.902,-1,-1,-0.504693982212932,1,-1,-1,-1
1,1,5,30,-1,1,1.541,-1,-1,1.17599765759908,-1,-1,-1,1
1,1,5,31,1,1,1.411,-1,1,0.392444364535482,-1,-1,-1,-1
1,1,5,32,-1,0,1.511,1,1,0.0643436144506365,1,-1,-1,-1
1,1,5,33,-1,0,1.13,-1,-1,0.319254666892035,1,1,-1,1
1,1,5,34,1,1,1.501,-1,-1,-0.762418803673348,-1,-1,1,1
1,1,5,35,1,0,1.081,1,1,0.294534814803947,-1,-1,-1,-1
1,1,5,36,-1,0,1.851,1,-1,-0.927454425376561,1,1,-1,-1
1,1,5,37,-1,0,1.542,-1,-1,1.07481231968762,-1,1,1,1
1,1,5,38,-1,0,1.401,-1,-1,0.394859412330777,-1,-1,1,-1
1,1,5,39,1,1,1.591,-1,-1,0.0378655793196328,-1,-1,-1,-1
1,1,5,40,1,1,1.381,1,1,0.511317683642179,-1,-1,-1,-1
1,1,5,41,1,1,1.462,1,1,-0.015662245017899,1,1,-1,-1
1,1,5,42,-1,1,1.611,1,1,0.196527773840624,1,1,1,1
1,1,5,43,1,1,1.221,-1,1,0.557824172841346,1,1,1,1
1,1,5,44,-1,1,1.251,1,1,-0.474078710610598,1,-1,1,1
1,1,5,45,1,1,1.101,-1,1,-0.383715146841999,1,1,-1,1
1,1,5,46,1,1,1.241,1,1,-0.859206940380641,1,-1,1,1
1,1,5,47,1,0,1.101,1,1,-0.413593285113893,1,1,-1,1
1,1,5,48,-1,1,1.101,1,-1,-0.859206940380641,1,1,1,1
1,1,5,49,1,0,2.452,-1,1,-0.859206940380641,-1,1,1,1
1,1,5,50,1,1,1.641,1,-1,2.12158060851043,1,-1,1,-1
1,1,5,51,-1,0,1.371,1,1,0.626512395304144,-1,1,-1,1
1,1,5,52,1,1,1.21,-1,-1,-0.0427175679190277,1,1,1,-1
1,1,5,53,-1,0,1.771,1,1,-0.507769402500093,-1,-1,1,1
1,1,5,54,-1,0,1.821,-1,-1,0.910332955476192,1,1,-1,-1
1,1,5,55,1,0,1,-1,-1,1.01398096546004,-1,-1,1,1
1,1,5,56,-1,0,1.241,1,-1,-1.21741012351707,-1,-1,-1,-1
1,1,5,57,1,1,1.651,-1,-1,-0.413593285113893,-1,1,-1,-1
1,1,5,58,-1,0,1.051,1,1,0.649129694797186,-1,-1,1,-1
1,1,5,59,1,1,1.672,-1,-1,-1.03223046049682,1,1,-1,-1
1,1,5,60,1,1,1.251,1,1,0.69618341597423,-1,-1,1,1
1,1,5,61,-1,0,1.111,1,1,-0.383715146841999,1,1,-1,-1
1,1,5,62,1,0,0.971,-1,-1,-0.825546710653121,1,1,1,1
1,1,5,63,-1,0,1.051,1,-1,-1.32696758359203,-1,-1,1,1
1,1,5,64,-1,0,1.781,-1,-1,-1.03223046049682,-1,1,-1,-1
1,1,5,65,1,0,0.94,-1,-1,0.931294700304813,-1,-1,1,-1
1,1,5,66,1,0,1.172,1,-1,-1.44775963181653,-1,-1,-1,-1
1,1,5,67,-1,0,1.582,1,-1,-0.626558867249582,-1,1,-1,-1
1,1,5,68,-1,0,1.612,-1,-1,0.490198708371451,-1,1,1,-1
1,1,5,69,1,1,1.111,-1,-1,0.560134316288662,-1,-1,1,-1
1,1,5,70,-1,0,1.121,1,1,-0.825546710653121,-1,-1,-1,-1
1,1,5,71,1,1,1.432,-1,-1,-0.79218809994184,1,1,-1,-1
1,1,5,72,1,1,1.201,1,1,0.119341953426986,-1,-1,1,1
1,1,5,73,-1,0,1.001,1,1,-0.535563114685842,1,1,-1,-1
1,1,5,74,1,1,1.311,-1,-1,-1.2136891876292,1,1,1,1
1,1,5,75,1,0,1.441,1,1,-0.209313419890858,-1,-1,1,1
1,1,5,76,-1,1,1.011,1,-1,0.142666195690862,1,1,-1,-1
1,1,5,77,1,0,1.171,-1,1,-1.1766829580001,-1,1,1,1
1,1,5,78,1,1,1.211,1,-1,-0.629736670298611,1,-1,1,-1
1,1,5,79,1,0,1.341,1,1,-0.504693982212932,-1,1,-1,1
1,1,5,80,1,1,1.871,1,-1,-0.125083672028673,1,1,1,-1
1,1,5,81,-1,0,0.921,1,1,1.1148212597973,-1,1,1,1
1,1,5,82,-1,0,1.451,-1,-1,-1.52377852773597,1,1,1,-1
1,1,5,83,1,0,0.971,-1,-1,0.168411775795819,-1,-1,1,1
1,1,5,84,-1,1,0.83,1,-1,-1.32696758359203,-1,-1,-1,-1
1,1,5,85,1,1,2.012,-1,1,-1.91107714044048,-1,1,-1,-1
1,1,5,86,1,0,1.281,1,1,1.38530549227784,1,-1,1,-1
1,1,5,87,1,1,1.691,1,-1,-0.295493102610757,1,1,-1,1
1,1,5,88,1,1,2.181,1,1,0.738249355593875,-1,1,1,1
1,1,5,89,-1,0,1.031,1,1,1.68556475935301,1,1,1,-1
1,1,5,90,-1,0,0.871,-1,-1,-1.1037561197293,1,1,1,1
1,1,5,91,-1,0,0.951,-1,-1,-1.73157777856991,-1,-1,1,1
1,1,5,92,-1,0,1.671,-1,-1,-1.40444792540843,-1,-1,-1,-1
1,1,5,93,1,1,1.601,-1,-1,0.693956197214476,-1,-1,-1,-1
1,1,5,94,-1,0,1.061,1,1,0.534643549715221,-1,-1,-1,-1
1,1,5,95,1,1,1.721,-1,-1,-0.99697644660991,1,1,-1,-1
1,1,5,96,1,1,0.74,1,1,0.803716389315744,-1,-1,1,1
1,1,5,97,-1,0,1.671,1,1,-2.33836297233002,1,1,-1,-1
1,1,5,98,1,1,2.082,-1,-1,0.693956197214476,1,1,1,1
1,1,5,99,1,0,1.382,1,1,1.51262406705228,-1,-1,1,1
1,1,5,100,1,1,1.691,1,-1,-0.0129674956813532,1,1,-1,-1
1,1,5,101,1,1,0.951,1,1,0.738249355593875,-1,1,1,1
1,1,5,102,-1,0,1.331,1,1,-1.40444792540843,1,1,1,-1
1,1,5,103,-1,0,1.541,-1,-1,-0.152949041991605,1,1,1,1
1,1,5,104,-1,0,1.2,-1,-1,0.392444364535482,-1,-1,1,1
1,1,5,105,1,0,1.321,-1,-1,-0.53866415280425,-1,-1,-1,-1
1,1,5,106,-1,0,1.631,1,-1,-0.181024560017229,-1,-1,-1,-1
1,1,5,107,1,1,1.942,-1,-1,0.603756847400924,-1,1,-1,-1
1,1,5,108,-1,0,1.451,1,1,1.25347799941547,-1,-1,1,-1
1,1,5,109,1,0,0.93,-1,-1,0.168411775795819,1,1,-1,-1
1,1,5,110,-1,0,1.512,1,-1,-1.48757601185,-1,-1,1,1
1,1,5,111,-1,0,1.751,-1,-1,0.321717648156792,-1,1,-1,-1
1,1,5,112,-1,0,1.701,-1,-1,0.868052023480078,-1,-1,1,-1
1,1,5,113,-1,1,1.401,-1,-1,0.760199867571151,-1,-1,-1,-1
1,1,5,114,1,1,1.831,-1,1,0.0378655793196328,-1,-1,-1,-1
1,1,5,115,-1,0,1.36,1,1,1.03436872750982,1,-1,-1,-1
1,1,5,116,1,1,1.951,-1,-1,-0.0727072991240665,1,1,-1,1
1,1,5,117,-1,0,2.001,1,1,1.27069106086109,-1,-1,1,1
1,1,5,118,1,1,2.222,-1,-1,1.36489639231894,1,1,-1,-1
1,1,5,119,-1,0,2.061,1,1,1.75489887235439,-1,-1,1,1
1,2,6,1,-1,0,1.811,1,1,0.824732865789815,1,1,-1,-1
1,2,6,2,-1,0,1.28,-1,-1,1.42750825443614,-1,-1,1,1
1,2,6,3,-1,0,1.721,-1,-1,0.228876793196114,-1,-1,-1,-1
1,2,6,4,-1,1,0.83,-1,-1,1.25144118952884,-1,-1,-1,-1
1,2,6,5,1,1,0.791,-1,1,-1.26739459089136,-1,-1,-1,-1
1,2,6,6,-1,1,0.761,1,1,-1.43363159282672,1,-1,-1,-1
1,2,6,7,-1,1,1.431,-1,1,-1.56718221796625,1,1,-1,1
1,2,6,8,1,1,1.231,-1,1,0.614052987695716,1,-1,1,1
1,2,6,9,1,1,1.181,1,1,0.0940529225356061,1,-1,-1,1
1,2,6,10,-1,0,0.931,1,1,-0.0491715425203689,1,1,-1,1
1,2,6,11,1,1,0.681,-1,-1,-0.870750322034994,1,1,1,1
1,2,6,12,1,1,0.671,1,1,-1.95083042823244,-1,-1,1,1
1,2,6,13,1,1,0.741,1,1,-2.00192720630156,1,1,-1,-1
1,2,6,14,-1,0,0.89,1,1,-1.65917378575808,1,1,1,1
1,2,6,15,1,1,0.79,-1,-1,-1.0263145008232,1,1,1,1
1,2,6,16,-1,0,0.75,1,1,-1.43800108007284,-1,-1,1,1
1,2,6,17,1,1,0.97,-1,-1,-1.6174741339368,1,1,-1,-1
1,2,6,18,-1,0,1.641,1,1,-0.729005984378936,-1,-1,1,1
1,2,6,19,-1,1,0.901,-1,-1,1.08702803778914,1,1,-1,-1
1,2,6,20,-1,0,0.82,-1,1,-0.983885300332445,-1,-1,1,1
1,2,6,21,1,1,0.91,-1,-1,-1.30926273027187,1,-1,-1,-1
1,2,6,22,1,0,1.021,1,1,-0.9495540261313,-1,-1,-1,1
1,2,6,23,-1,1,0.881,1,-1,-0.552012932663332,1,1,-1,-1
1,2,6,24,1,0,1.01,-1,1,-1.06142119814725,-1,1,1,1
1,2,6,25,1,0,1.21,1,-1,-0.589428238224305,1,-1,1,-1
1,2,6,26,-1,1,0.72,1,-1,0.034620351505451,-1,1,-1,1
1,2,6,27,1,0,0.951,-1,1,-1.75847653641496,-1,1,1,-1
1,2,6,28,-1,1,2.161,1,-1,-0.797334610181329,1,-1,1,-1
1,2,6,29,-1,0,1.111,-1,1,2.03781606759248,-1,1,-1,1
1,2,6,30,1,1,1.591,-1,-1,-0.260219327905948,1,-1,1,-1
1,2,6,31,1,0,0.91,1,1,0.980148248122259,-1,-1,-1,1
1,2,6,32,1,0,1.271,1,-1,-0.9495540261313,1,1,-1,-1
1,2,6,33,-1,1,1.061,1,-1,0.204504514210293,-1,1,1,1
1,2,6,34,1,1,1.171,-1,1,-0.41927501594375,-1,1,1,-1
1,2,6,35,1,1,0.98,1,1,-0.0785431413361535,1,-1,1,-1
1,2,6,36,1,1,0.87,1,1,-0.693579220410465,1,1,-1,1
1,2,6,37,-1,0,0.861,1,1,-1.10481968029139,1,1,1,1
1,2,6,38,1,1,0.671,-1,-1,-1.14073763868723,1,1,1,1
1,2,6,39,-1,0,0.831,1,1,-2.00192720630156,-1,-1,1,1
1,2,6,40,1,1,1.341,-1,-1,-1.26323555461833,1,1,-1,-1
1,2,6,41,-1,0,0.701,1,1,0.38968326881475,-1,-1,1,1
1,2,6,42,1,1,0.651,-1,-1,-1.85085009915037,1,1,-1,-1
1,2,6,43,-1,0,0.771,1,1,-2.1064458979901,-1,-1,1,1
1,2,6,44,1,1,1.331,-1,-1,-1.52208915967855,1,1,-1,-1
1,2,6,45,1,1,0.75,1,1,0.363829261823808,-1,-1,1,1
1,2,6,46,1,1,0.74,1,1,-1.6174741339368,1,1,-1,-1
1,2,6,47,1,1,0.701,1,1,-1.66383830936693,1,1,1,1
1,2,6,48,-1,0,0.69,1,1,-1.85085009915037,1,1,1,1
1,2,6,49,1,1,0.7,-1,-1,-1.90548081565508,1,1,1,1
1,2,6,50,1,1,1.241,1,1,-1.85578097680064,-1,-1,1,1
1,2,6,51,-1,1,1.001,1,1,0.12199869963151,1,1,-1,-1
1,2,6,52,-1,1,1.511,-1,1,-0.620345115812943,1,1,1,1
1,2,6,53,1,0,0.99,-1,1,0.801948619537926,1,-1,1,1
1,2,6,54,-1,0,1.371,1,-1,-0.658512125230513,1,-1,-1,1
1,2,6,55,1,1,1.341,-1,-1,0.466104067616278,-1,1,-1,1
1,2,6,56,1,0,1.031,1,1,0.38968326881475,-1,-1,1,-1
1,2,6,57,-1,0,1.671,1,-1,-0.518347176801172,1,1,-1,-1
1,2,6,58,1,1,0.801,-1,-1,1.14960364788888,-1,1,1,1
1,2,6,59,-1,0,0.86,1,1,-1.39023806724081,-1,-1,1,-1
1,2,6,60,1,1,1.631,-1,-1,-1.14475167656772,1,1,-1,-1
1,2,6,61,-1,0,0.981,1,1,1.06591501846245,-1,-1,1,1
1,2,6,62,-1,0,1.041,-1,-1,-0.690056446818592,1,1,-1,-1
1,2,6,63,1,1,0.771,-1,-1,-0.485006385043248,-1,-1,1,1
1,2,6,64,1,0,0.811,1,1,-1.52208915967855,-1,-1,-1,-1
1,2,6,65,1,1,1.471,1,-1,-1.34738293676524,1,1,-1,-1
1,2,6,66,-1,0,0.711,1,1,0.709278293730017,-1,1,1,1
1,2,6,67,1,1,1.101,-1,-1,-1.80192464649044,1,1,1,-1
1,2,6,68,-1,0,0.681,1,1,-0.291449913247167,-1,-1,1,1
1,2,6,69,-1,0,0.91,-1,-1,-1.95083042823244,1,1,-1,-1
1,2,6,70,1,1,0.74,-1,-1,-0.9495540261313,-1,-1,1,1
1,2,6,71,-1,1,1.05,1,1,-1.66383830936693,-1,-1,-1,-1
1,2,6,72,1,1,1.111,-1,1,-0.455272377546623,1,1,-1,-1
1,2,6,73,1,1,0.701,1,1,-0.260219327905948,1,-1,1,1
1,2,6,74,1,1,0.951,1,1,-1.85085009915037,1,1,-1,1
1,2,6,75,-1,0,0.981,1,1,-0.797334610181329,1,1,1,1
1,2,6,76,-1,0,1.251,-1,-1,-0.690056446818592,1,1,1,1
1,2,6,77,-1,1,1.581,-1,-1,0.149720190384564,-1,-1,1,1
1,2,6,78,-1,0,1.661,-1,1,0.958369618547086,-1,-1,-1,-1
1,2,6,79,-1,1,0.891,-1,-1,1.12887081728854,1,-1,-1,-1
1,2,6,80,-1,1,1.521,-1,1,-1.02243569164812,-1,-1,-1,1
1,2,6,81,1,0,1.311,-1,1,0.824732865789815,1,-1,-1,-1
1,2,6,82,-1,0,1.071,1,-1,0.311533346779945,1,-1,-1,1
1,2,6,83,-1,0,0.821,-1,-1,-0.386872534350439,-1,1,-1,1
1,2,6,84,-1,0,0.89,-1,-1,-1.30505300493978,-1,-1,1,-1
1,2,6,85,-1,0,1.26,-1,-1,-1.0263145008232,-1,-1,-1,-1
1,2,6,86,1,1,1.441,-1,-1,0.174480720841308,-1,-1,-1,-1
1,2,6,87,-1,0,1.521,1,1,0.638106561276075,-1,-1,-1,-1
1,2,6,88,1,1,1.101,-1,-1,0.824732865789815,1,1,-1,-1
1,2,6,89,1,1,0.75,1,1,-0.291449913247167,-1,-1,1,1
1,2,6,90,1,1,1.671,1,1,-1.6174741339368,1,1,-1,-1
1,2,6,91,-1,0,1.121,1,1,1.14960364788888,1,1,1,1
1,2,6,92,1,1,1.762,-1,-1,-0.229268590281261,1,1,1,1
1,2,6,93,-1,0,1.211,1,1,1.33276406591231,-1,-1,1,1
1,2,6,94,-1,0,1.131,-1,-1,0.0374737834789038,1,1,-1,-1
1,2,6,95,-1,0,0.93,-1,-1,-0.19859272962205,-1,-1,1,1
1,2,6,96,1,0,1.131,-1,-1,-0.874462390320725,-1,-1,-1,-1
1,2,6,97,-1,1,0.991,1,-1,-0.19859272962205,-1,-1,-1,-1
1,2,6,98,1,1,1.841,-1,1,-0.65502491725392,-1,1,-1,-1
1,2,6,99,1,1,1.771,1,1,1.48425782024201,1,-1,1,-1
1,2,6,100,1,0,1.361,1,1,1.35036201672508,1,1,-1,1
1,2,6,101,-1,0,1.02,1,-1,0.440817869714217,1,1,1,1
1,2,6,102,1,0,2.091,-1,-1,-0.55539762593508,-1,1,1,1
1,2,6,103,-1,0,1.601,1,-1,1.92407787784996,-1,-1,1,-1
1,2,6,104,-1,0,1.712,-1,-1,1.00179041922296,-1,1,-1,-1
1,2,6,105,-1,0,1.671,-1,-1,1.2333306249583,-1,-1,1,-1
1,2,6,106,-1,1,0.89,-1,-1,1.14960364788888,-1,-1,-1,-1
1,2,6,107,1,1,1.902,-1,1,-1.0263145008232,-1,-1,-1,-1
1,2,6,108,1,0,1.321,1,1,1.59685065387823,1,-1,-1,-1
1,2,6,109,1,1,1.1,1,-1,0.337780275563286,1,1,-1,1
1,2,6,110,1,1,0.901,1,1,-0.294588558812906,-1,1,1,1
1,2,6,111,-1,0,0.881,1,1,-0.983885300332445,1,1,1,-1
1,2,6,112,1,1,1.051,-1,-1,-1.06142119814725,1,1,1,1
1,2,6,113,-1,0,0.931,1,1,-0.451984343783406,-1,-1,1,1
1,2,6,114,1,1,0.951,-1,-1,-0.870750322034994,1,1,-1,-1
1,2,6,115,-1,0,0.731,1,1,-0.797334610181329,-1,-1,1,1
1,2,6,116,-1,0,1.131,-1,-1,-1.70610493175947,1,1,-1,-1
1,2,6,117,-1,0,1.781,-1,-1,-0.19859272962205,-1,-1,1,1
1,2,6,118,-1,0,1.131,-1,-1,1.36981071229461,-1,-1,-1,-1
1,2,6,119,1,0,0.84,-1,-1,-0.19859272962205,-1,-1,-1,-1
1,2,7,1,-1,0,2.041,-1,-1,1.94220092027615,-1,-1,-1,-1
1,2,7,2,-1,0,1.121,-1,-1,1.84048039934798,-1,1,-1,-1
1,2,7,3,-1,1,1.641,-1,-1,-0.229268590281261,-1,-1,1,-1
1,2,7,4,1,1,1.671,-1,1,1.08702803778914,-1,-1,-1,-1
1,2,7,5,1,1,1.561,1,1,1.14960364788888,1,-1,-1,-1
1,2,7,6,-1,0,1.181,1,1,0.914396023902703,1,1,-1,1
1,2,7,7,-1,0,1.001,-1,-1,-0.0491715425203689,1,1,1,1
1,2,7,8,1,1,0.901,-1,-1,-0.620345115812943,-1,-1,1,1
1,2,7,9,1,1,1.051,1,1,-0.983885300332445,-1,-1,-1,-1
1,2,7,10,1,1,1.742,1,1,-0.451984343783406,1,1,-1,-1
1,2,7,11,1,0,1.201,1,1,1.29333350977308,1,1,1,1
1,2,7,12,1,1,1.361,1,-1,0.00883282992901193,1,1,1,1
1,2,7,13,-1,0,1.672,1,1,0.440817869714217,-1,1,1,1
1,2,7,14,1,0,1.281,-1,-1,1.15167010275603,1,1,1,-1
1,2,7,15,1,1,1.211,1,-1,0.231574239024286,-1,-1,1,1
1,2,7,16,-1,0,1.221,1,1,0.0374737834789038,-1,1,-1,-1
1,2,7,17,-1,0,1.051,-1,-1,0.0658792002054445,1,1,1,-1
1,2,7,18,1,1,1.281,-1,-1,-0.451984343783406,-1,-1,1,1
1,2,7,19,1,0,1.281,1,1,0.231574239024286,-1,-1,-1,-1
1,2,7,20,-1,0,1.411,1,-1,0.231574239024286,1,1,-1,-1
1,2,7,21,-1,0,1.952,-1,-1,0.56543741797645,-1,1,1,1
1,2,7,22,-1,0,1.481,-1,-1,1.68647891063311,-1,-1,1,-1
1,2,7,23,-1,0,1.862,-1,-1,0.732680003891374,-1,-1,-1,-1
1,2,7,24,-1,0,1.301,-1,-1,1.52343494202456,-1,-1,-1,-1
1,2,7,25,-1,0,1.301,-1,-1,0.285085444150625,-1,-1,-1,-1
1,2,7,26,1,1,1.32,-1,-1,0.285085444150625,-1,-1,-1,-1
1,2,7,27,1,1,1.751,1,1,0.335164539575024,-1,-1,-1,-1
1,2,7,28,-1,0,2.071,1,1,1.31113298395555,1,1,-1,-1
1,2,7,29,1,1,1.141,-1,-1,1.89088128203404,1,1,1,1
1,2,7,30,-1,0,1.392,1,1,-0.168186906450531,-1,-1,1,1
1,2,7,31,-1,0,1.331,-1,-1,0.518610082902075,1,1,-1,-1
1,2,7,32,-1,1,0.771,-1,-1,0.363829261823808,-1,-1,1,1
1,2,7,33,-1,1,1.331,-1,1,-1.52208915967855,-1,-1,-1,-1
1,2,7,34,-1,0,2.041,-1,1,0.363829261823808,1,-1,-1,-1
1,2,7,35,1,0,1.571,-1,-1,1.84048039934798,1,-1,-1,1
1,2,7,36,1,1,1.721,1,-1,0.936452798773595,-1,-1,-1,1
1,2,7,37,-1,0,1.241,1,1,1.25144118952884,-1,1,-1,-1
1,2,7,38,1,1,1.871,-1,-1,0.12199869963151,1,1,1,-1
1,2,7,39,-1,0,1.241,1,1,1.54009005753403,-1,-1,1,1
1,2,7,40,-1,1,1.762,-1,-1,0.12199869963151,1,1,-1,-1
1,2,7,41,-1,0,1.151,-1,1,1.33276406591231,-1,-1,1,1
1,2,7,42,1,0,1.021,-1,-1,-0.138046407980077,1,-1,-1,-1
1,2,7,43,1,1,1.502,1,-1,-0.552012932663332,-1,-1,-1,1
1,2,7,44,1,1,0.901,1,1,0.781313501499788,-1,1,-1,-1
1,2,7,45,-1,1,1.622,1,1,-0.983885300332445,1,1,1,-1
1,2,7,46,-1,0,0.85,-1,1,1.04680232729432,1,1,1,1
1,2,7,47,-1,0,1.061,-1,-1,-1.18515072432301,1,-1,1,1
1,2,7,48,1,0,1.361,-1,-1,-0.41927501594375,-1,-1,-1,1
1,2,7,49,-1,0,2.162,1,-1,0.440817869714217,-1,-1,-1,-1
1,2,7,50,-1,0,1.191,-1,-1,2.03941406864223,-1,1,-1,-1
1,2,7,51,1,1,1.742,-1,-1,-0.0200475992553692,-1,-1,1,-1
1,2,7,52,1,0,1.17,1,1,1.29333350977308,-1,-1,-1,-1
1,2,7,53,1,0,1.06,1,-1,-0.081494084879528,1,1,-1,-1
1,2,7,54,-1,1,1.291,1,-1,-0.422532045140698,-1,1,1,1
1,2,7,55,1,0,1.611,-1,1,0.258433466181276,-1,1,1,-1
1,2,7,56,1,1,1.641,1,-1,1.02329783122411,1,-1,1,-1
1,2,7,57,-1,0,1.421,1,1,1.08702803778914,-1,1,-1,1
1,2,7,58,1,1,1.131,-1,-1,0.589830734101034,1,1,1,-1
1,2,7,59,-1,0,1.101,1,1,-0.19859272962205,-1,-1,1,1
1,2,7,60,1,1,0.811,-1,-1,-0.291449913247167,1,1,-1,-1
1,2,7,61,1,0,1.601,1,1,-1.34738293676524,-1,-1,1,1
1,2,7,62,1,1,1.591,1,-1,1.00179041922296,1,1,-1,-1
1,2,7,63,1,1,1.502,1,1,0.980148248122259,-1,1,1,1
1,2,7,64,-1,0,1.091,1,1,0.781313501499788,1,1,1,-1
1,2,7,65,-1,1,1.361,-1,-1,-0.322965453120403,1,1,1,1
1,2,7,66,1,0,0.81,-1,1,0.440817869714217,-1,-1,1,1
1,2,7,67,-1,0,1.061,1,-1,-1.35164460196648,1,-1,-1,-1
1,2,7,68,-1,0,1.391,-1,-1,-0.41927501594375,-1,1,-1,1
1,2,7,69,1,0,1.741,-1,-1,0.516127812434173,-1,-1,1,-1
1,2,7,70,-1,0,1.261,1,-1,1.29135011654751,-1,-1,-1,-1
1,2,7,71,1,1,1.572,-1,-1,0.177220966290407,-1,1,-1,-1
1,2,7,72,1,1,1.731,1,1,0.938650749345648,-1,-1,1,-1
1,2,7,73,-1,0,1.041,1,1,1.27145329190156,1,1,-1,-1
1,2,7,74,1,1,1.08,-1,-1,-0.485006385043248,1,1,1,1
1,2,7,75,1,1,0.751,1,1,-0.35796793716094,-1,-1,1,1
1,2,7,76,1,0,1.01,1,1,-1.61287176255977,1,1,-1,-1
1,2,7,77,-1,0,1.701,1,-1,-0.589428238224305,1,1,1,1
1,2,7,78,-1,0,1.532,-1,-1,1.21106575367772,-1,1,1,1
1,2,7,79,1,1,0.791,-1,-1,0.849623161037596,-1,-1,1,-1
1,2,7,80,-1,0,1.031,1,1,-1.43363159282672,-1,-1,-1,-1
1,2,7,81,1,0,1.01,-1,-1,-0.518347176801172,1,1,-1,-1
1,2,7,82,-1,0,0.99,1,-1,-0.589428238224305,-1,-1,1,1
1,2,7,83,-1,1,0.611,-1,-1,-0.658512125230513,-1,1,-1,-1
1,2,7,84,-1,0,1.231,-1,1,-2.32547832795535,-1,-1,1,-1
1,2,7,85,-1,1,0.851,-1,-1,0.0940529225356061,1,-1,-1,-1
1,2,7,86,1,1,1.951,-1,1,-1.18108949021913,-1,-1,-1,1
1,2,7,87,-1,0,1.931,1,1,1.68470894943249,1,-1,-1,-1
1,2,7,88,1,1,1.441,-1,-1,1.64911791627041,1,1,-1,1
1,2,7,89,1,1,1.782,1,1,0.638106561276075,-1,-1,1,1
1,2,7,90,1,1,0.851,1,1,1.37174957241144,1,1,-1,-1
1,2,7,91,1,0,1.612,1,1,-1.18108949021913,1,1,1,1
1,2,7,92,-1,0,2.202,1,-1,1.02544122515416,1,1,1,1
1,2,7,93,-1,1,1.441,-1,-1,2.10273535081239,-1,1,1,1
1,2,7,94,-1,0,1.191,-1,1,0.638106561276075,-1,-1,1,-1
1,2,7,95,1,1,0.921,-1,-1,-0.0200475992553692,1,-1,-1,-1
1,2,7,98,1,1,1.581,1,-1,-0.229268590281261,-1,-1,-1,1
1,2,7,99,1,1,0.95,1,1,0.958369618547086,1,1,-1,-1
1,2,7,100,-1,0,1.051,1,1,-0.800968570755794,1,1,1,1
1,2,7,101,-1,0,1.031,-1,-1,-0.451984343783406,1,1,1,1
1,2,7,102,-1,0,0.66,-1,-1,-0.518347176801172,-1,-1,1,1
1,2,7,103,-1,0,0.93,-1,-1,-2.05902072448453,-1,-1,-1,-1
1,2,7,104,1,0,0.841,-1,-1,-0.874462390320725,-1,-1,-1,-1
1,2,7,105,1,1,1.301,1,-1,-1.22191832503392,-1,-1,-1,-1
1,2,7,106,1,1,0.91,1,1,0.285085444150625,-1,1,-1,-1
1,2,7,107,-1,0,1.671,1,1,-0.9495540261313,1,1,1,-1
1,2,7,108,1,0,1.511,-1,-1,1.14960364788888,1,1,1,1
1,2,7,109,1,0,1.061,1,-1,0.801948619537926,-1,-1,1,1
1,2,7,110,-1,1,1.031,1,-1,-0.41927501594375,-1,1,-1,-1
1,2,7,111,-1,1,0.86,-1,1,-0.518347176801172,-1,1,1,-1
1,2,7,112,1,1,1.061,-1,1,-1.14475167656772,1,-1,1,-1
1,2,7,113,1,0,1.301,1,1,-0.41927501594375,1,-1,-1,1
1,2,7,114,1,0,1.02,1,-1,0.285085444150625,1,1,-1,1
1,2,7,115,1,0,1.281,1,-1,-0.55539762593508,-1,1,1,1
1,2,7,118,-1,0,1.331,1,-1,-0.908051755904262,-1,1,1,-1
1,2,7,119,-1,0,1.041,-1,-1,0.363829261823808,-1,1,1,-1
1,2,8,1,1,1,1.431,1,1,2.25613885607948,-1,-1,1,-1
1,2,8,2,1,1,1.281,1,1,0.614052987695716,-1,-1,-1,-1
1,2,8,3,-1,0,2.031,1,1,0.231574239024286,1,1,-1,-1
1,2,8,4,1,1,1.131,-1,-1,1.82351533966613,1,1,1,1
1,2,8,5,-1,0,1.181,1,1,-0.19859272962205,-1,-1,1,1
1,2,8,6,-1,0,1.061,-1,-1,-0.0491715425203689,1,1,-1,-1
1,2,8,7,-1,0,1.491,-1,-1,-0.41927501594375,-1,-1,1,1
1,2,8,8,1,1,1.041,-1,-1,0.755924231634231,-1,-1,-1,-1
1,2,8,9,-1,1,1.411,1,1,-0.485006385043248,-1,-1,-1,-1
1,2,8,10,1,1,1.321,-1,1,0.56543741797645,1,1,-1,-1
1,2,8,11,-1,0,1.651,1,1,0.337780275563286,1,-1,1,1
1,2,8,12,-1,0,2.472,-1,-1,1.10801278767716,1,1,-1,1
1,2,8,13,1,1,1.801,-1,-1,2.50223933753522,-1,-1,1,1
1,2,8,14,1,1,1.781,1,1,1.40838262856413,-1,-1,-1,-1
1,2,8,15,1,1,1.261,1,1,1.36981071229461,1,1,-1,-1
1,2,8,16,-1,0,1.041,1,1,0.177220966290407,1,1,1,1
1,2,8,17,1,0,1.711,-1,-1,-0.485006385043248,1,1,1,1
1,2,8,18,1,1,1.912,1,-1,1.23131246585477,-1,-1,1,1
1,2,8,19,-1,0,1.281,1,1,1.6149633288779,-1,1,-1,-1
1,2,8,20,1,1,1.702,-1,-1,0.231574239024286,1,1,1,-1
1,2,8,21,1,1,1.271,1,1,1.21309577384043,-1,-1,1,1
1,2,8,22,1,1,1.331,1,1,0.204504514210293,1,1,-1,-1
1,2,8,23,-1,0,1.661,1,1,0.363829261823808,1,1,1,1
1,2,8,24,1,1,1.041,-1,-1,1.12887081728854,1,1,1,1
1,2,8,25,1,1,0.981,1,1,-0.485006385043248,-1,-1,1,1
1,2,8,26,1,0,1.191,1,1,-0.690056446818592,1,1,-1,-1
1,2,8,27,1,1,1.731,1,-1,-0.0200475992553692,1,1,1,1
1,2,8,28,-1,0,1.161,1,1,1.27145329190156,-1,1,1,1
1,2,8,29,-1,0,2.021,-1,-1,-0.108166643731305,1,1,1,-1
1,2,8,30,1,1,1.761,-1,-1,1.80646654292406,-1,-1,1,1
1,2,8,31,-1,0,1.741,1,1,1.33080319205469,-1,-1,-1,-1
1,2,8,32,1,1,1.511,-1,-1,1.29135011654751,1,1,-1,-1
1,2,8,33,-1,0,1.171,1,1,0.801948619537926,-1,-1,1,1
1,2,8,34,-1,0,2.071,-1,-1,-0.0785431413361535,1,1,-1,-1
1,2,8,35,-1,0,2.351,-1,-1,1.89088128203404,-1,-1,1,1
1,2,8,36,-1,0,1.14,-1,-1,2.32889025866068,-1,-1,-1,-1
1,2,8,37,1,1,1.191,-1,-1,-0.171215472367864,-1,-1,-1,-1
1,2,8,38,-1,0,1.281,1,1,-0.0200475992553692,-1,-1,-1,-1
1,2,8,39,-1,0,1.031,-1,-1,0.231574239024286,1,1,-1,-1
1,2,8,40,1,0,0.911,-1,-1,-0.518347176801172,-1,-1,1,1
1,2,8,41,-1,1,1.511,1,-1,-0.945760418712698,-1,-1,-1,-1
1,2,8,42,1,0,1.051,-1,1,0.801948619537926,-1,1,-1,-1
1,2,8,43,1,0,0.97,1,-1,-0.451984343783406,1,-1,1,-1
1,2,8,44,-1,1,1.081,1,-1,-0.729005984378936,-1,1,-1,1
1,2,8,45,1,1,1.671,-1,1,-0.354771195417325,-1,1,1,-1
1,2,8,46,-1,0,0.961,1,1,1.14960364788888,1,-1,1,-1
1,2,8,47,1,1,2.072,-1,-1,-0.761203745092579,1,1,-1,1
1,2,8,48,-1,0,0.961,1,1,1.8925487110828,-1,-1,1,1
1,2,8,49,-1,0,2.012,-1,-1,-0.761203745092579,1,1,-1,-1
1,2,8,50,1,0,0.881,-1,-1,1.79105034432706,-1,-1,1,1
1,2,8,51,-1,0,1.621,1,-1,-1.06142119814725,-1,-1,-1,-1
1,2,8,52,-1,0,1.701,-1,-1,1.04467215195241,-1,1,-1,-1
1,2,8,53,1,0,1.451,-1,-1,1.21106575367772,-1,-1,1,-1
1,2,8,54,-1,1,2.201,1,-1,0.661993787927106,-1,-1,-1,-1
1,2,8,55,-1,1,1.791,-1,1,2.10116638453176,-1,1,-1,-1
1,2,8,56,-1,1,2.442,-1,1,1.38915051202162,1,-1,1,-1
1,2,8,57,-1,0,1.451,-1,1,2.460064464265,1,-1,-1,1
1,2,8,58,-1,1,1.941,-1,-1,0.661993787927106,1,-1,-1,1
1,2,8,59,1,0,1.952,-1,1,1.66695927415827,-1,-1,-1,1
1,2,8,60,1,1,1.751,1,-1,1.68647891063311,1,-1,-1,-1
1,2,8,63,1,1,1.942,-1,1,0.638106561276075,-1,1,-1,1
1,2,8,64,-1,0,2.182,1,1,1.66873835182182,1,1,1,-1
1,2,8,65,1,1,1.321,-1,-1,2.07121981093916,1,1,1,1
1,2,8,66,-1,0,1.532,1,1,0.337780275563286,-1,-1,1,1
1,2,8,69,1,1,1.872,-1,-1,0.824732865789815,1,1,-1,-1
1,2,8,70,-1,0,2.022,1,1,1.54193567831394,-1,-1,1,1
1,2,8,71,-1,0,1.191,-1,-1,1.80817521434522,1,1,-1,-1
1,2,8,72,1,0,0.98,-1,-1,-0.0200475992553692,-1,-1,1,1
1,2,8,73,-1,0,1.931,1,-1,-0.693579220410465,-1,-1,-1,-1
1,2,8,74,1,0,1.24,-1,-1,1.64911791627041,-1,1,-1,-1
1,2,8,75,1,1,1.351,1,-1,0.119214274484812,-1,-1,1,-1
1,2,8,76,1,1,1.261,1,1,0.415345193742357,-1,1,-1,-1
1,2,8,79,1,0,1.531,1,-1,1.27145329190156,1,1,1,-1
1,2,8,80,-1,0,0.96,1,-1,0.847367803982324,1,1,1,1
1,2,8,81,1,1,0.88,-1,-1,-0.764799871609424,-1,1,1,1
1,2,8,82,1,1,0.86,1,1,-1.065344059679,-1,-1,1,-1
1,2,8,83,-1,0,0.84,1,1,-1.14475167656772,1,1,-1,-1
1,2,8,84,-1,1,0.981,-1,-1,-1.22602787841271,1,1,1,1
1,2,8,85,1,0,1.08,-1,1,-0.690056446818592,-1,-1,1,1
1,2,8,86,-1,0,2.271,1,-1,-0.35796793716094,1,-1,-1,-1
1,2,8,87,1,1,1.581,-1,-1,2.2093082872346,-1,1,-1,1
1,2,8,88,-1,0,1.352,1,1,0.958369618547086,-1,-1,1,-1
1,2,8,89,1,1,1.411,-1,-1,0.417900931341332,1,1,-1,-1
1,2,8,90,1,0,0.99,1,1,0.56543741797645,-1,-1,1,1
1,2,8,91,1,1,1.451,1,-1,-0.658512125230513,1,1,-1,-1
1,2,8,92,1,1,1.632,1,1,0.661993787927106,-1,1,1,1
1,2,8,93,-1,0,1.331,1,1,1.06803213725839,1,1,1,-1
1,2,8,94,1,1,1.721,-1,-1,0.363829261823808,1,1,1,1
1,2,8,95,1,1,1.471,1,1,1.25144118952884,-1,-1,1,1
1,2,8,96,1,1,1.621,1,1,0.709278293730017,1,1,-1,-1
1,2,8,97,1,1,1.181,1,1,1.04467215195241,1,1,1,1
1,2,8,98,-1,0,1.121,1,1,-0.0491715425203689,1,1,1,1
1,2,8,99,-1,1,0.93,-1,-1,-0.229268590281261,1,1,1,1
1,2,8,100,-1,0,1.16,-1,1,-0.874462390320725,-1,-1,1,1
1,2,8,101,-1,1,1.02,-1,-1,-0.111143015485856,1,-1,-1,-1
1,2,8,102,1,1,1.181,-1,1,-0.55539762593508,-1,-1,-1,1
1,2,8,103,1,1,1.271,1,1,-0.0491715425203689,1,-1,-1,-1
1,2,8,104,1,0,1.311,1,1,0.204504514210293,1,1,-1,1
1,2,8,105,-1,1,1.391,1,-1,0.311533346779945,1,1,1,1
1,2,8,106,-1,1,0.92,-1,1,0.516127812434173,-1,1,1,1
1,2,8,107,-1,0,1.831,-1,1,-0.911804150849546,1,-1,1,-1
1,2,8,108,1,0,1.721,-1,-1,1.46544470615465,1,-1,-1,1
1,2,8,109,-1,0,1.12,1,-1,1.25144118952884,-1,-1,-1,1
1,2,8,110,1,1,1.721,-1,-1,-0.232351213607175,-1,1,-1,-1
1,2,8,111,1,1,1.461,1,1,1.25144118952884,-1,-1,1,-1
1,2,8,112,-1,0,0.971,1,1,0.685716952661237,1,1,-1,-1
1,2,8,113,1,1,1.491,-1,-1,-0.725446912237738,1,1,1,1
1,2,8,114,-1,0,1.421,1,1,0.755924231634231,-1,-1,1,1
1,2,8,115,1,1,1.642,-1,-1,0.589830734101034,1,1,-1,-1
1,2,8,116,-1,0,1.761,1,1,1.08913225911978,-1,-1,1,1
1,2,8,117,-1,0,1.822,-1,-1,1.33080319205469,1,1,-1,-1
1,2,8,118,-1,0,1.271,-1,-1,1.44842484534686,-1,-1,1,1
1,2,8,119,1,0,0.84,-1,-1,0.204504514210293,-1,-1,-1,-1
1,2,9,1,1,1,0.961,-1,-1,0.779013082362191,-1,-1,-1,-1
1,2,9,2,1,0,1.911,1,1,-0.761203745092579,-1,1,-1,-1
1,2,9,3,-1,0,0.69,1,-1,1.6131563295129,1,1,1,-1
1,2,9,4,1,0,0.821,-1,-1,-1.90548081565508,-1,1,1,1
1,2,9,5,-1,1,0.911,1,-1,-1.30505300493978,-1,-1,1,-1
1,2,9,6,-1,0,0.901,-1,1,-0.945760418712698,-1,1,-1,-1
1,2,9,7,1,0,0.911,-1,-1,-0.983885300332445,1,-1,1,-1
1,2,9,8,1,0,1.402,1,-1,-0.945760418712698,-1,-1,-1,1
1,2,9,9,-1,0,1.041,1,-1,0.543335164909191,-1,1,-1,-1
1,2,9,10,-1,0,1.592,-1,-1,-0.485006385043248,-1,1,1,-1
1,2,9,11,1,1,1.571,-1,-1,0.982318577573136,-1,-1,1,-1
1,2,9,12,1,1,1.271,1,1,0.936452798773595,-1,-1,-1,-1
1,2,9,13,-1,0,2.022,1,1,0.204504514210293,1,1,-1,-1
1,2,9,14,1,1,1.521,-1,-1,1.80817521434522,1,1,1,1
1,2,9,15,1,1,1.121,1,1,0.824732865789815,-1,-1,1,1
1,2,9,16,1,1,0.681,1,1,-0.229268590281261,1,1,-1,-1
1,2,9,17,-1,0,0.89,1,1,-1.95083042823244,1,1,1,1
1,2,9,18,-1,1,1.762,-1,-1,-1.0263145008232,1,1,1,1
1,2,9,19,1,1,1.231,-1,1,1.33276406591231,-1,-1,1,1
1,2,9,20,-1,0,0.76,1,1,0.0940529225356061,1,-1,-1,-1
1,2,9,21,1,1,2.082,-1,-1,-1.57172407162188,1,1,-1,1
1,2,9,22,1,1,0.991,1,1,1.90917887901631,-1,-1,1,1
1,2,9,23,1,0,0.87,1,1,-0.65502491725392,1,1,-1,-1
1,2,9,24,1,0,0.841,1,-1,-1.10481968029139,1,1,1,1
1,2,9,25,1,1,1.391,1,-1,-1.22191832503392,-1,1,1,1
1,2,9,26,-1,0,1.041,1,1,0.516127812434173,-1,1,1,-1
1,2,9,27,-1,1,1.181,-1,-1,-0.485006385043248,1,1,1,-1
1,2,9,28,-1,0,1.181,-1,1,-0.0491715425203689,-1,-1,1,1
1,2,9,29,-1,1,0.931,-1,-1,-0.0491715425203689,1,-1,-1,-1
1,2,9,30,-1,1,0.871,-1,1,-0.870750322034994,-1,-1,-1,1
1,2,9,31,-1,0,0.84,-1,1,-1.10085175428648,1,-1,-1,-1
1,2,9,32,1,1,1.27,-1,-1,-1.22602787841271,1,-1,-1,1
1,2,9,33,1,0,0.95,1,1,0.201785837007815,-1,-1,-1,1
1,2,9,34,-1,0,1.381,1,-1,-0.800968570755794,1,1,-1,-1
1,2,9,35,1,1,1.821,-1,-1,0.491206497921652,-1,1,1,1
1,2,9,36,1,1,0.881,1,1,1.44652856245134,-1,-1,1,-1
1,2,9,37,-1,0,1.101,1,1,-1.06142119814725,1,1,-1,-1
1,2,9,38,-1,1,1.181,-1,-1,-0.291449913247167,1,1,1,1
1,2,9,39,1,0,1.591,-1,1,-0.0491715425203689,-1,-1,1,1
1,2,9,40,-1,0,0.991,1,-1,0.980148248122259,1,-1,-1,-1
1,2,9,41,-1,0,1.091,-1,-1,-0.65502491725392,-1,1,-1,1
1,2,9,42,-1,0,1.031,-1,-1,-0.322965453120403,-1,-1,1,-1
1,2,9,43,1,1,0.931,-1,-1,-0.518347176801172,-1,-1,-1,-1
1,2,9,44,-1,0,1.421,1,1,-0.870750322034994,-1,-1,-1,-1
1,2,9,45,-1,1,1.231,-1,-1,0.589830734101034,1,1,-1,-1
1,2,9,46,1,0,1.411,-1,1,0.0940529225356061,-1,-1,1,1
1,2,9,47,-1,1,0.961,1,-1,0.56543741797645,1,-1,-1,-1
1,2,9,48,1,1,1.782,-1,1,-0.761203745092579,-1,1,-1,1
1,2,9,49,-1,0,0.81,1,1,1.37174957241144,1,-1,1,-1
1,2,9,50,-1,1,1.741,-1,-1,-1.35164460196648,1,1,-1,1
1,2,9,51,1,0,0.751,-1,1,1.29135011654751,-1,-1,1,1
1,2,9,52,-1,1,1.341,1,-1,-1.61287176255977,1,-1,-1,-1
1,2,9,53,-1,0,1.04,-1,1,0.38968326881475,-1,1,-1,1
1,2,9,54,-1,0,1.381,-1,-1,-0.488326019328011,1,-1,1,-1
1,2,9,55,-1,0,1.481,-1,-1,0.491206497921652,-1,-1,-1,1
1,2,9,56,-1,0,1.171,-1,-1,0.732680003891374,-1,-1,-1,-1
1,2,9,57,-1,0,1.371,-1,-1,-0.0785431413361535,-1,-1,-1,-1
1,2,9,58,1,1,1.051,-1,-1,0.466104067616278,-1,-1,-1,-1
1,2,9,59,1,0,1.551,1,1,-0.451984343783406,-1,-1,-1,-1
1,2,9,60,-1,0,1.3,1,-1,0.892197495007245,1,1,-1,-1
1,2,9,61,1,1,1.341,-1,-1,0.282429481538079,-1,1,1,1
1,2,9,62,1,1,1.541,1,1,0.38968326881475,-1,-1,1,-1
1,2,9,63,1,0,1.381,1,1,0.869855378251546,1,1,-1,-1
1,2,9,66,-1,1,2.232,-1,-1,0.38968326881475,1,1,1,1
1,2,9,67,1,0,1.391,-1,1,2.14947597212676,-1,1,1,1
1,2,9,68,1,1,1.281,1,-1,0.516127812434173,1,-1,1,-1
1,2,9,69,-1,0,1.011,1,1,0.231574239024286,-1,1,-1,1
1,2,9,70,-1,0,1.772,-1,-1,-0.586010049714343,1,1,1,-1
1,2,9,71,-1,0,1.441,-1,-1,1.35231182157924,-1,-1,1,1
1,2,9,72,1,0,1.631,-1,-1,0.638106561276075,-1,-1,-1,-1
1,2,9,73,1,0,0.911,1,-1,1.06591501846245,-1,-1,-1,-1
1,2,9,74,1,0,1.951,1,-1,-0.945760418712698,-1,1,-1,-1
1,2,9,75,1,0,2.182,1,-1,1.68470894943249,-1,1,1,-1
1,2,9,76,1,0,1.491,1,-1,2.07121981093916,-1,1,1,-1
1,2,9,77,-1,0,1.921,1,-1,0.755924231634231,-1,1,1,-1
1,2,9,78,1,1,1.151,-1,-1,1.63118392371047,-1,1,1,-1
1,2,9,79,-1,1,1.741,1,1,-0.138046407980077,-1,-1,1,-1
1,2,9,80,1,1,0.921,-1,1,1.29135011654751,1,1,-1,-1
1,2,9,81,1,1,0.981,1,1,-0.908051755904262,1,-1,1,1
1,2,9,82,-1,1,1.451,1,1,-0.690056446818592,1,1,-1,1
1,2,9,83,-1,1,1.171,-1,1,0.661993787927106,1,1,1,1
1,2,9,84,1,0,0.981,-1,1,-0.0785431413361535,1,-1,1,1
1,2,9,85,-1,0,0.891,1,-1,-0.690056446818592,1,-1,-1,1
1,2,9,86,-1,1,0.861,-1,-1,-1.02243569164812,-1,1,-1,1
1,2,9,87,1,0,1.221,-1,1,-1.14073763868723,-1,-1,1,-1
1,2,9,88,-1,0,1.021,1,-1,0.0658792002054445,1,-1,-1,-1
1,2,9,89,1,1,1.971,-1,-1,-0.552012932663332,-1,1,-1,1
1,2,9,90,-1,0,0.72,1,1,1.71993698765967,-1,-1,1,-1
1,2,9,91,-1,0,1.37,-1,-1,-1.75847653641496,1,1,-1,-1
1,2,9,92,1,1,1.691,-1,-1,0.463583761625271,-1,-1,1,1
1,2,9,93,-1,0,0.89,1,1,1.19069966161183,-1,-1,-1,-1
1,2,9,94,-1,0,1.521,-1,-1,-1.0263145008232,1,1,-1,-1
1,2,9,95,1,1,1.121,-1,-1,0.824732865789815,-1,-1,1,1
1,2,9,96,-1,0,0.73,1,1,-0.229268590281261,-1,-1,-1,-1
1,2,9,97,1,0,0.85,-1,-1,-1.7108333092363,1,1,-1,-1
1,2,9,98,-1,0,0.801,1,-1,-1.18515072432301,-1,-1,1,1
1,2,9,99,1,1,0.911,-1,-1,-1.39023806724081,-1,1,-1,-1
1,2,9,100,1,1,0.86,1,1,-0.945760418712698,-1,-1,1,-1
1,2,9,101,-1,1,0.86,1,1,-1.14475167656772,1,1,-1,-1
1,2,9,102,-1,0,1.691,-1,1,-1.14475167656772,1,1,1,1
1,2,9,103,-1,1,0.791,-1,-1,1.19069966161183,1,-1,1,1
1,2,9,104,-1,1,1.311,-1,1,-1.43363159282672,-1,-1,-1,1
1,2,9,105,1,1,1.071,-1,1,0.311533346779945,1,-1,-1,-1
1,2,9,106,1,0,1.061,1,1,-0.386872534350439,1,-1,-1,1
1,2,9,107,1,1,1.471,1,-1,-0.41927501594375,1,1,-1,1
1,2,9,108,1,0,0.991,1,1,0.709278293730017,-1,1,1,1
1,2,9,109,1,0,1.281,1,-1,-0.65502491725392,1,1,1,-1
1,2,9,110,1,1,1.401,1,-1,0.231574239024286,-1,1,1,1
1,2,9,111,-1,0,1.521,1,1,0.540870605969504,-1,1,1,-1
1,2,9,112,-1,1,1.001,-1,-1,0.824732865789815,1,1,1,-1
1,2,9,113,1,0,0.961,-1,1,-0.620345115812943,-1,-1,1,1
1,2,9,114,1,1,1.051,1,-1,-0.761203745092579,1,-1,-1,-1
1,2,9,115,1,1,1.982,1,1,-0.451984343783406,-1,1,-1,1
1,2,9,116,-1,0,1.021,1,1,1.73916034680564,1,1,1,-1
1,2,9,117,1,0,1.11,-1,-1,-0.552012932663332,1,1,1,1
1,2,9,118,1,0,1.571,1,-1,-0.263329710112913,-1,-1,1,1
1,2,9,119,1,0,1.501,1,-1,0.936452798773595,-1,1,-1,-1
1,2,10,1,-1,0,0.76,1,-1,-0.620345115812943,-1,1,1,-1
1,2,10,2,1,1,1.481,-1,-1,-1.57172407162188,-1,1,1,-1
1,2,10,3,1,0,1.241,1,1,0.732680003891374,-1,-1,1,-1
1,2,10,4,1,0,1.491,1,-1,0.12199869963151,1,1,-1,-1
1,2,10,5,1,1,1.321,1,-1,0.755924231634231,-1,1,1,1
1,2,10,6,-1,0,1.34,1,1,0.337780275563286,-1,1,1,-1
1,2,10,7,1,1,1.241,-1,-1,0.387106559103738,1,1,1,-1
1,2,10,8,1,0,1.281,1,1,0.12199869963151,-1,-1,1,1
1,2,10,9,1,1,1.241,1,-1,0.231574239024286,1,1,-1,-1
1,2,10,10,-1,0,1.781,1,1,0.12199869963151,-1,1,1,1
1,2,10,13,-1,0,1.361,1,-1,-0.620345115812943,1,1,1,-1
1,2,10,14,-1,1,1.031,-1,-1,0.440817869714217,-1,-1,1,1
1,2,10,15,-1,0,1.602,-1,1,-0.518347176801172,-1,-1,-1,-1
1,2,10,16,1,1,1.851,-1,-1,1.00394719681875,1,-1,-1,-1
1,2,10,17,-1,0,1.021,1,1,1.50296902096887,-1,-1,-1,1
1,2,10,18,1,1,1.151,-1,-1,-0.552012932663332,1,1,-1,-1
1,2,10,19,1,0,1.18,1,1,-0.138046407980077,-1,-1,1,1
1,2,10,20,-1,0,1.621,1,-1,-0.0520974886567311,1,1,-1,-1
1,2,10,21,1,0,0.96,-1,-1,1.04467215195241,-1,1,1,1
1,2,10,22,-1,0,1.13,1,-1,-0.764799871609424,-1,-1,1,-1
1,2,10,23,-1,0,2.131,-1,-1,-0.201648085157344,-1,1,-1,-1
1,2,10,24,1,1,1.691,-1,-1,1.9895289921883,-1,-1,1,-1
1,2,10,25,-1,1,1.431,1,1,1.19069966161183,-1,-1,-1,-1
1,2,10,26,1,1,1.481,-1,1,0.614052987695716,1,1,-1,-1
1,2,10,27,-1,0,1.021,1,1,0.732680003891374,1,-1,1,1
1,2,10,28,1,0,1.571,-1,-1,-0.552012932663332,1,1,-1,1
1,2,10,29,1,1,0.99,1,-1,0.936452798773595,-1,-1,1,1
1,2,10,30,-1,0,1.101,1,1,-0.658512125230513,-1,1,-1,-1
1,2,10,31,-1,1,1.381,-1,-1,-0.291449913247167,1,1,1,-1
1,2,10,32,1,0,1.12,-1,1,0.491206497921652,-1,-1,1,1
1,2,10,33,1,1,1.251,1,-1,-0.232351213607175,1,-1,-1,-1
1,2,10,34,-1,0,1.091,1,1,0.149720190384564,-1,1,-1,1
1,2,10,35,-1,0,1.081,-1,-1,-0.322965453120403,1,1,1,-1
1,2,10,36,-1,0,0.9,-1,-1,-0.354771195417325,-1,-1,1,1
1,2,10,37,-1,1,1.961,-1,-1,-0.987721035548871,-1,-1,-1,-1
1,2,10,38,1,1,0.991,-1,1,1.70236787954928,-1,-1,-1,-1
1,2,10,39,-1,0,0.72,1,1,-0.65502491725392,1,-1,-1,-1
1,2,10,40,-1,0,1.521,-1,-1,-1.75847653641496,1,1,-1,1
1,2,10,41,-1,0,1.06,-1,-1,0.824732865789815,-1,-1,1,1
1,2,10,42,-1,0,0.8,-1,-1,-0.422532045140698,-1,-1,-1,-1
1,2,10,43,1,1,0.761,-1,-1,-1.39455296999735,-1,-1,-1,-1
1,2,10,44,-1,0,1.691,1,1,-1.56718221796625,-1,-1,-1,-1
1,2,10,45,1,1,1.801,-1,-1,1.19069966161183,1,1,-1,-1
1,2,10,46,1,1,1.441,1,1,1.40838262856413,-1,-1,1,1
1,2,10,47,-1,0,0.861,1,1,0.638106561276075,1,1,-1,-1
1,2,10,48,1,1,0.951,-1,-1,-1.14073763868723,1,1,1,1
1,2,10,49,1,1,0.681,1,1,-0.797334610181329,-1,-1,1,1
1,2,10,50,-1,0,0.831,1,1,-1.95083042823244,1,1,-1,-1
1,2,10,51,-1,0,1.341,-1,-1,-1.26323555461833,1,1,1,1
1,2,10,52,-1,0,1.481,-1,-1,0.38968326881475,-1,-1,1,1
1,2,10,53,-1,1,1.391,-1,-1,0.732680003891374,-1,-1,-1,-1
1,2,10,54,-1,0,1.381,-1,1,0.516127812434173,-1,-1,-1,-1
1,2,10,55,-1,0,1.642,-1,-1,0.491206497921652,1,-1,-1,-1
1,2,10,56,1,1,0.87,-1,-1,1.08913225911978,-1,-1,-1,1
1,2,10,57,1,0,1.111,1,1,-1.10481968029139,-1,-1,-1,-1
1,2,10,58,-1,0,1.321,1,-1,-0.260219327905948,1,1,-1,-1
1,2,10,59,1,1,1.862,-1,-1,0.337780275563286,-1,1,1,1
1,2,10,60,-1,0,1.21,1,1,1.52343494202456,-1,-1,1,-1
1,2,10,61,-1,0,0.871,-1,-1,0.034620351505451,1,1,-1,-1
1,2,10,62,1,1,1.241,-1,-1,-1.10085175428648,-1,-1,1,1
1,2,10,63,1,0,1.13,1,1,0.12199869963151,-1,-1,-1,-1
1,2,10,64,1,1,0.991,1,-1,-0.201648085157344,1,1,-1,-1
1,2,10,65,-1,0,0.981,1,1,-0.65502491725392,-1,1,1,1
1,2,10,66,-1,0,0.961,-1,-1,-0.690056446818592,1,1,1,-1
1,2,10,67,-1,1,2.112,-1,-1,-0.761203745092579,-1,-1,1,1
1,2,10,68,1,0,1.001,-1,1,1.95859430276849,-1,-1,-1,-1
1,2,10,69,1,1,1.771,1,-1,-0.620345115812943,1,-1,-1,-1
1,2,10,70,1,0,0.991,1,1,1.35036201672508,-1,1,-1,1
1,2,10,71,-1,1,1.231,1,-1,-0.65502491725392,1,1,1,-1
1,2,10,72,1,0,0.8,-1,1,0.0940529225356061,-1,1,1,1
1,2,10,73,1,1,1.121,1,-1,-1.39455296999735,1,-1,1,-1
1,2,10,74,-1,0,0.5,1,1,-0.229268590281261,-1,1,-1,1
1,2,10,75,-1,0,0.87,-1,-1,-3.01798273319082,1,1,1,-1
1,2,10,76,1,1,1.161,-1,-1,-1.10481968029139,-1,-1,1,1
1,2,10,77,1,1,1.091,1,1,-0.108166643731305,-1,-1,-1,-1
1,2,10,78,1,1,1.341,1,1,-0.322965453120403,1,1,-1,-1
1,2,10,79,1,0,0.781,1,1,0.38968326881475,1,1,1,1
1,2,10,80,1,1,1.281,1,-1,-1.47757721369161,1,1,1,1
1,2,10,81,1,0,1.09,1,1,0.231574239024286,-1,1,1,1
1,2,10,82,1,1,0.93,1,-1,-0.326132880400985,1,1,1,-1
1,2,10,83,-1,0,1.401,1,1,-0.874462390320725,-1,1,1,1
1,2,10,84,-1,0,1.151,-1,-1,0.540870605969504,1,1,1,-1
1,2,10,85,-1,1,0.891,-1,-1,-0.138046407980077,-1,-1,1,1
1,2,10,86,-1,0,1.461,-1,1,-1.02243569164812,-1,-1,-1,-1
1,2,10,87,1,0,1.822,-1,-1,0.685716952661237,1,-1,-1,-1
1,2,10,88,1,0,0.86,1,-1,1.44842484534686,-1,-1,-1,1
1,2,10,89,-1,0,0.911,1,-1,-1.14475167656772,-1,1,-1,-1
1,2,10,90,-1,1,1.131,-1,-1,-0.945760418712698,-1,1,1,-1
1,2,10,91,1,1,1.07,-1,1,-0.19859272962205,-1,-1,1,-1
1,2,10,92,1,0,1.17,1,1,-0.390099138235169,1,-1,-1,-1
1,2,10,93,1,1,0.941,1,-1,-0.081494084879528,1,1,-1,1
1,2,10,94,-1,1,1.441,1,1,-0.833847415380827,-1,1,1,1
1,2,10,95,1,1,1.392,-1,1,0.638106561276075,1,1,1,-1
1,2,10,96,-1,0,0.911,1,1,0.518610082902075,1,-1,1,1
1,2,10,97,-1,0,1.131,-1,-1,-0.945760418712698,1,1,-1,1
1,2,10,98,-1,1,1.421,-1,-1,-0.19859272962205,-1,-1,1,1
1,2,10,99,1,1,1.041,-1,1,0.589830734101034,-1,-1,-1,-1
1,2,10,100,-1,0,1.441,1,1,-0.485006385043248,1,-1,-1,-1
1,2,10,101,1,1,1.621,-1,-1,0.638106561276075,1,1,-1,1
1,2,10,102,1,1,0.96,1,1,1.04467215195241,-1,-1,1,1
1,2,10,103,1,1,0.951,1,1,-0.764799871609424,1,1,-1,-1
1,2,10,104,1,1,1.091,1,1,-0.797334610181329,1,1,1,1
1,2,10,105,-1,0,1.071,1,1,-0.322965453120403,1,1,1,1
1,2,10,106,1,1,1.611,-1,-1,-0.386872534350439,1,1,1,1
1,2,10,107,-1,0,1.752,1,1,1.02329783122411,-1,-1,1,1
1,2,10,108,1,1,2.382,-1,-1,1.31310505321119,1,1,-1,-1
1,2,10,109,-1,0,1.941,1,1,2.37413766480419,-1,-1,1,1
1,2,10,110,-1,0,1.09,-1,-1,1.66695927415827,1,1,-1,-1
1,2,10,111,-1,1,0.97,-1,-1,-0.326132880400985,-1,-1,1,1
1,2,10,112,1,1,0.9,-1,1,-0.729005984378936,-1,-1,-1,-1
1,2,10,113,-1,0,1.191,1,1,-0.987721035548871,1,-1,-1,-1
1,2,10,114,1,0,1.391,-1,-1,-0.0200475992553692,1,1,-1,1
1,2,10,115,1,1,1.792,1,-1,0.516127812434173,-1,-1,1,1
1,2,10,116,-1,0,0.921,1,1,1.39107854958629,-1,1,-1,-1
1,2,10,117,1,1,1.441,-1,-1,-0.908051755904262,1,1,1,-1
1,2,10,118,-1,0,1.011,1,1,0.638106561276075,-1,-1,1,1
1,2,10,119,-1,0,0.791,-1,-1,-0.586010049714343,1,1,-1,-1
1,2,11,1,-1,1,0.701,1,1,-1.34738293676524,-1,-1,1,1
1,2,11,2,1,1,1.461,-1,1,-1.85085009915037,-1,-1,-1,-1
1,2,11,3,1,0,0.96,1,1,0.685716952661237,1,-1,-1,-1
1,2,11,4,1,1,0.801,1,-1,-0.764799871609424,1,1,-1,1
1,2,11,5,-1,0,1.611,1,1,-1.39023806724081,-1,1,1,1
1,2,11,6,-1,1,0.96,-1,-1,1.02329783122411,1,1,1,-1
1,2,11,7,-1,1,0.74,-1,1,-0.764799871609424,-1,-1,1,1
1,2,11,8,1,1,1.06,-1,1,-1.66383830936693,1,-1,-1,-1
1,2,11,9,1,0,1.381,1,1,-0.422532045140698,1,-1,-1,1
1,2,11,10,1,1,0.881,1,-1,0.491206497921652,1,1,-1,1
1,2,11,11,-1,0,0.781,1,1,-1.06142119814725,-1,1,1,1
1,2,11,12,1,1,1.001,-1,-1,-1.47757721369161,1,1,1,-1
1,2,11,13,-1,0,1.21,1,1,-0.620345115812943,-1,-1,1,1
1,2,11,14,1,1,0.99,-1,-1,0.034620351505451,1,1,-1,-1
1,2,11,15,-1,0,0.86,1,1,-0.658512125230513,-1,-1,1,1
1,2,11,16,1,0,1.631,-1,-1,-1.14475167656772,1,1,-1,-1
1,2,11,17,-1,0,1.281,1,-1,1.06591501846245,-1,-1,1,1
1,2,11,18,-1,1,1.381,-1,-1,0.231574239024286,-1,1,-1,-1
1,2,11,19,-1,0,1.14,-1,1,0.491206497921652,-1,-1,1,-1
1,2,11,20,1,0,1.431,-1,-1,-0.171215472367864,1,-1,-1,-1
1,2,11,21,1,1,1.101,1,-1,0.614052987695716,-1,-1,-1,1
1,2,11,22,1,1,1.301,1,1,-0.291449913247167,-1,1,-1,-1
1,2,11,23,1,1,1.261,1,1,0.285085444150625,1,1,1,-1
1,2,11,24,1,1,1.2,1,1,0.177220966290407,1,1,1,1
1,2,11,25,-1,1,1.241,1,1,0.00595562925666633,1,1,1,1
1,2,11,26,-1,0,1.031,-1,1,0.12199869963151,1,1,1,1
1,2,11,27,-1,1,0.6,-1,-1,-0.518347176801172,1,-1,1,1
1,2,11,28,1,0,1.06,-1,1,-2.38822963480289,-1,-1,-1,1
1,2,11,29,-1,1,1.751,1,-1,-0.422532045140698,1,-1,-1,-1
1,2,11,30,1,1,1.612,-1,1,1.31113298395555,-1,1,-1,1
1,2,11,31,-1,1,1.321,1,1,1.02544122515416,1,-1,1,-1
1,2,11,32,-1,0,1.261,-1,1,0.337780275563286,1,1,-1,1
1,2,11,33,-1,0,0.96,-1,-1,0.177220966290407,1,-1,1,1
1,2,11,34,-1,0,1.121,-1,-1,-0.764799871609424,-1,-1,-1,1
1,2,11,35,1,0,0.901,-1,-1,-0.229268590281261,-1,-1,-1,-1
1,2,11,36,1,0,0.831,1,-1,-0.983885300332445,-1,-1,-1,-1
1,2,11,37,-1,1,0.881,1,-1,-1.26323555461833,-1,1,-1,-1
1,2,11,38,1,0,2.322,-1,1,-1.06142119814725,-1,1,1,-1
1,2,11,39,1,1,1.791,1,-1,2.28601862032825,1,-1,1,-1
1,2,11,40,-1,0,0.79,1,1,1.38915051202162,-1,1,-1,1
1,2,11,41,1,1,1.021,-1,-1,-1.43800108007284,1,1,1,-1
1,2,11,44,-1,0,1.221,-1,-1,-1.52657206648229,-1,-1,1,1
1,2,11,45,-1,1,1.601,-1,-1,0.0658792002054445,1,1,-1,-1
1,2,11,46,1,0,1.041,-1,1,1.00179041922296,-1,-1,1,1
1,2,11,47,1,1,1.161,1,-1,-0.485006385043248,1,-1,-1,-1
1,2,11,48,1,1,1.241,1,1,-0.108166643731305,-1,1,-1,1
1,2,11,49,1,0,1.09,1,1,0.12199869963151,1,1,1,-1
1,2,11,50,-1,1,1.731,1,-1,-0.326132880400985,1,1,1,1
1,2,11,51,-1,0,0.65,-1,1,1.27145329190156,-1,1,1,1
1,2,11,52,1,1,1.111,-1,-1,-2.11175578252148,1,-1,1,-1
1,2,11,53,1,0,0.87,1,1,-0.260219327905948,-1,-1,-1,1
1,2,11,54,-1,0,1.131,1,-1,-1.10481968029139,1,1,-1,-1
1,2,11,55,-1,1,1.271,-1,-1,-0.19859272962205,-1,1,1,1
1,2,11,56,1,1,1.291,-1,1,0.204504514210293,-1,-1,1,-1
1,2,11,57,-1,1,0.961,1,1,0.258433466181276,1,-1,-1,-1
1,2,11,58,1,0,0.781,-1,1,-0.761203745092579,1,1,-1,1
1,2,11,59,1,0,0.961,1,-1,-1.47757721369161,1,-1,1,1
1,2,11,60,-1,0,1.541,1,-1,-0.761203745092579,-1,1,-1,1
1,2,11,61,1,1,1.06,-1,-1,0.869855378251546,-1,1,1,-1
1,2,11,62,-1,1,1.201,1,1,-0.422532045140698,-1,-1,1,-1
1,2,11,63,-1,1,0.711,-1,1,0.00883282992901193,1,1,-1,-1
1,2,11,64,1,1,1.521,-1,1,-1.80192464649044,1,-1,1,1
1,2,11,65,1,0,0.951,1,1,0.824732865789815,1,-1,-1,1
1,2,11,66,1,1,1.031,1,-1,-0.797334610181329,1,1,-1,1
1,2,11,67,-1,0,1.061,1,1,-0.518347176801172,-1,1,1,1
1,2,11,68,1,1,1.021,-1,-1,-0.41927501594375,1,1,1,-1
1,2,11,69,-1,0,1.19,1,1,-0.552012932663332,-1,-1,1,1
1,2,11,70,1,0,1.101,-1,-1,-0.0229489679328326,1,1,-1,-1
1,2,11,71,1,0,1.742,1,-1,-0.291449913247167,-1,-1,1,1
1,2,11,72,1,1,0.86,1,-1,1.29333350977308,-1,1,-1,-1
1,2,11,73,1,1,0.961,1,1,-1.14475167656772,-1,1,1,-1
1,2,11,74,-1,1,1.181,1,1,-0.761203745092579,1,1,1,-1
1,2,11,75,-1,0,1.081,-1,1,-0.0491715425203689,1,1,1,1
1,2,11,76,-1,0,0.681,-1,-1,-0.354771195417325,1,-1,1,1
1,2,11,77,-1,0,0.65,-1,-1,-1.95083042823244,-1,-1,-1,1
1,2,11,78,1,1,1.521,-1,-1,-2.11175578252148,-1,-1,-1,-1
1,2,11,79,-1,0,1.191,1,1,0.824732865789815,-1,-1,-1,-1
1,2,11,80,1,1,1.241,-1,-1,-0.0200475992553692,1,1,-1,-1
1,2,11,81,-1,1,1.271,1,1,0.12199869963151,-1,-1,1,1
1,2,11,82,1,0,0.961,-1,1,0.204504514210293,1,1,-1,-1
1,2,11,83,1,0,1.321,1,-1,-0.761203745092579,1,-1,1,1
1,2,11,84,-1,0,1.391,1,-1,0.337780275563286,-1,1,-1,1
1,2,11,85,-1,0,1.311,-1,-1,0.516127812434173,-1,1,1,-1
1,2,11,86,-1,1,1.111,-1,-1,0.311533346779945,-1,-1,1,-1
1,2,11,87,-1,1,0.781,-1,1,-0.260219327905948,-1,-1,-1,-1
1,2,11,88,1,1,0.85,-1,1,-1.47757721369161,1,-1,-1,-1
1,2,11,89,1,1,0.901,1,1,-1.18515072432301,1,-1,-1,1
1,2,11,90,-1,1,0.811,1,1,-0.983885300332445,1,1,-1,1
1,2,11,91,1,1,1.651,-1,1,-1.34738293676524,1,1,1,1
1,2,11,92,-1,0,0.891,1,1,1.10801278767716,1,-1,1,1
1,2,11,93,-1,0,0.771,-1,-1,-1.02243569164812,1,1,-1,1
1,2,11,94,-1,1,1.201,-1,-1,-1.52208915967855,-1,-1,1,1
1,2,11,95,-1,1,1.231,-1,1,0.00883282992901193,-1,-1,-1,-1
1,2,11,96,1,1,1.591,-1,1,0.0940529225356061,1,-1,-1,-1
1,2,11,97,1,0,1.001,1,1,0.980148248122259,1,-1,-1,1
1,2,11,98,-1,1,1.211,1,-1,-0.620345115812943,1,1,-1,1
1,2,11,99,1,1,0.98,-1,1,0.0374737834789038,-1,1,1,1
1,2,11,100,-1,0,1.121,1,1,-0.693579220410465,1,-1,1,-1
1,2,11,101,-1,0,1.411,-1,-1,-0.229268590281261,1,1,-1,1
1,2,11,102,-1,0,1.201,-1,-1,0.56543741797645,-1,-1,1,1
1,2,11,103,1,0,1.311,-1,-1,0.00883282992901193,-1,-1,-1,-1
1,2,11,104,-1,0,1.461,1,-1,0.311533346779945,-1,-1,-1,-1
1,2,11,105,1,0,1.841,-1,-1,0.685716952661237,-1,1,-1,-1
1,2,11,106,-1,0,1.091,1,-1,1.48425782024201,-1,-1,1,-1
1,2,11,107,1,1,1.651,-1,-1,-0.322965453120403,-1,1,-1,-1
1,2,11,108,1,1,1.812,1,1,1.10801278767716,-1,-1,1,-1
1,2,11,109,1,1,0.971,1,1,1.42941500535811,1,1,-1,-1
1,2,11,110,-1,0,1.111,1,1,-0.725446912237738,1,1,1,1
1,2,11,111,1,1,1.691,-1,-1,-0.260219327905948,1,1,1,1
1,2,11,112,1,1,0.961,1,1,1.19069966161183,-1,-1,1,1
1,2,11,113,-1,1,0.78,1,1,-0.761203745092579,1,1,-1,-1
1,2,11,114,-1,0,0.781,-1,1,-1.48200268413355,1,1,1,1
1,2,11,115,1,1,1.342,-1,-1,-1.47757721369161,1,-1,1,1
1,2,11,116,1,1,0.791,1,1,0.392258057758002,-1,-1,-1,1
1,2,11,117,-1,1,1,1,1,-1.43363159282672,1,1,-1,-1
1,2,11,118,-1,0,1.421,-1,1,-0.623797469131264,1,1,1,1
1,2,11,119,-1,0,0.781,-1,-1,0.589830734101034,1,-1,1,1
1,2,12,1,1,1,1.691,-1,-1,0.308897650957717,-1,-1,-1,1
1,2,12,2,-1,1,1.171,1,1,1.19069966161183,-1,-1,-1,-1
1,2,12,3,-1,1,1.281,-1,1,-0.0785431413361535,1,1,-1,-1
1,2,12,4,-1,0,0.92,-1,1,0.231574239024286,1,-1,1,1
1,2,12,5,-1,1,2.402,-1,-1,-0.911804150849546,1,-1,-1,1
1,2,12,6,1,1,0.931,-1,1,2.40301809398857,-1,-1,-1,1
1,2,12,7,-1,0,1.541,1,1,-0.870750322034994,1,-1,-1,-1
1,2,12,8,1,1,1.151,-1,-1,0.869855378251546,1,1,-1,1
1,2,12,9,1,0,1.811,1,1,-0.138046407980077,-1,-1,1,1
1,2,12,10,1,1,1.641,1,-1,1.42750825443614,1,1,-1,-1
1,2,12,11,1,1,1.351,1,1,1.08702803778914,-1,1,1,1
1,2,12,12,-1,0,1.231,1,1,0.415345193742357,1,1,1,-1
1,2,12,13,1,1,1.131,-1,-1,0.0940529225356061,1,1,1,1
1,2,12,14,-1,0,1.081,1,1,-0.19859272962205,-1,-1,1,1
1,2,12,15,1,1,1.211,-1,-1,-0.354771195417325,1,1,-1,-1
1,2,12,16,1,1,0.921,1,1,0.0374737834789038,-1,-1,1,1
1,2,12,17,-1,0,1.882,1,1,-0.908051755904262,1,1,-1,-1
1,2,12,18,-1,0,1.191,-1,-1,1.56033784867873,1,1,1,1
1,2,12,19,1,1,0.931,-1,-1,-0.0200475992553692,-1,-1,1,1
1,2,12,20,-1,0,1.851,1,1,-0.870750322034994,-1,-1,-1,-1
1,2,12,21,-1,0,0.99,-1,-1,1.50296902096887,1,1,-1,-1
1,2,12,22,-1,0,1.731,-1,-1,-0.658512125230513,-1,-1,1,1
1,2,12,23,-1,0,1.091,-1,-1,1.27145329190156,-1,-1,-1,-1
1,2,12,24,-1,0,1.772,-1,-1,-0.322965453120403,-1,-1,-1,-1
1,2,12,25,-1,0,1.491,-1,-1,1.35231182157924,-1,-1,-1,-1
1,2,12,26,-1,0,1.692,-1,-1,0.755924231634231,-1,-1,-1,-1
1,2,12,27,1,0,1.081,-1,-1,1.19274168307682,-1,-1,-1,-1
1,2,12,28,1,1,1.271,1,-1,-0.354771195417325,-1,-1,-1,-1
1,2,12,29,-1,0,1.371,1,1,0.204504514210293,-1,1,-1,-1
1,2,12,30,-1,1,1.441,-1,-1,0.466104067616278,1,1,1,-1
1,2,12,31,-1,1,1.111,-1,1,0.638106561276075,-1,-1,1,1
1,2,12,32,1,0,1.521,-1,1,-0.260219327905948,1,-1,-1,-1
1,2,12,33,1,1,1.621,1,-1,0.824732865789815,1,-1,-1,1
1,2,12,34,-1,0,1.011,1,1,1.04467215195241,-1,1,-1,1
1,2,12,35,1,1,1.542,-1,-1,-0.586010049714343,1,1,1,-1
1,2,12,36,-1,0,1.732,1,1,0.872096104381005,-1,-1,1,1
1,2,12,37,-1,0,1.01,-1,-1,1.27344813989661,1,1,-1,-1
1,2,12,38,1,1,1.101,-1,-1,-0.589428238224305,-1,-1,1,1
1,2,12,39,1,1,1.131,1,1,-0.291449913247167,-1,-1,-1,-1
1,2,12,40,1,1,0.76,1,1,-0.19859272962205,1,1,-1,-1
1,2,12,41,-1,1,1.031,1,1,-1.57172407162188,1,1,1,1
1,2,12,42,-1,0,1.601,-1,1,-0.518347176801172,1,1,1,1
1,2,12,43,-1,0,1.591,-1,-1,1.00179041922296,1,-1,1,1
1,2,12,44,-1,0,2.151,-1,-1,0.980148248122259,-1,-1,-1,1
1,2,12,45,-1,1,1.801,-1,-1,2.02179526332639,-1,-1,-1,-1
1,2,12,46,1,0,1.081,-1,1,1.40838262856413,-1,-1,-1,-1
1,2,12,47,-1,0,1.091,1,-1,-0.354771195417325,1,-1,-1,-1
1,2,12,48,1,1,1.05,-1,-1,-0.322965453120403,-1,1,-1,1
1,2,12,49,1,1,1.201,1,1,-0.455272377546623,-1,-1,1,-1
1,2,12,50,1,1,0.881,1,1,0.00883282992901193,1,1,-1,-1
1,2,12,51,-1,0,1.301,1,1,-1.06142119814725,1,1,1,1
1,2,12,52,-1,0,2.091,-1,-1,0.285085444150625,1,1,1,1
1,2,12,53,1,0,1.351,-1,-1,1.92407787784996,-1,-1,1,1
1,2,12,54,1,1,1.201,1,-1,0.415345193742357,-1,-1,-1,-1
1,2,12,55,1,1,1.371,1,1,0.00883282992901193,-1,1,-1,-1
1,2,12,56,1,1,1.451,1,1,0.466104067616278,1,1,1,-1
1,2,12,57,1,1,1.011,1,1,0.661993787927106,1,1,1,1
1,2,12,58,-1,0,1.091,1,1,-0.586010049714343,1,1,1,1
1,2,12,59,1,1,1.551,-1,-1,-0.322965453120403,1,1,1,1
1,2,12,60,-1,0,1.201,1,1,0.892197495007245,-1,-1,1,1
1,2,12,61,1,1,0.911,-1,-1,0.00883282992901193,1,1,-1,-1
1,2,12,62,1,0,0.491,1,1,-0.945760418712698,-1,-1,1,1
1,2,12,63,-1,0,0.881,1,-1,-3.0807225264602,1,1,-1,-1
1,2,12,64,-1,1,1.391,-1,-1,-1.06142119814725,-1,1,1,1
1,2,12,65,1,1,2.072,-1,1,0.516127812434173,-1,-1,1,-1
1,2,12,66,1,1,0.911,1,1,1.8925487110828,1,-1,-1,-1
1,2,12,67,-1,0,0.711,1,1,-0.945760418712698,1,1,-1,1
1,2,12,68,-1,0,0.951,-1,-1,-1.80192464649044,1,1,1,1
1,2,12,69,-1,1,1.952,-1,-1,-0.797334610181329,-1,-1,1,1
1,2,12,70,-1,1,1.972,-1,1,1.68647891063311,-1,-1,-1,-1
1,2,12,71,-1,0,1.241,-1,1,1.72168899338196,1,-1,-1,-1
1,2,12,72,1,1,1.641,-1,-1,0.12199869963151,1,-1,-1,1
1,2,12,73,-1,0,2.262,1,1,1.08702803778914,-1,-1,-1,1
1,2,12,74,-1,0,2.142,-1,-1,2.19559253443751,1,1,-1,-1
1,2,12,75,1,1,1.832,-1,-1,2.00731272970912,-1,-1,1,1
1,2,12,76,1,1,0.961,1,1,1.46733063533469,-1,-1,-1,-1
1,2,12,77,-1,1,0.931,1,1,-0.761203745092579,1,1,-1,-1
1,2,12,78,1,1,1,-1,1,-0.870750322034994,1,1,1,1
1,2,12,79,1,1,1.031,1,1,-0.623797469131264,1,-1,1,1
1,2,12,80,1,1,1.841,1,1,-0.518347176801172,1,1,-1,1
1,2,12,81,-1,0,1.571,1,1,1.48425782024201,1,1,1,1
1,2,12,82,1,1,1.801,-1,-1,0.936452798773595,1,1,1,1
1,2,12,83,1,1,1.12,1,1,1.40838262856413,-1,-1,1,1
1,2,12,84,-1,0,1.081,1,1,-0.232351213607175,1,1,-1,-1
1,2,12,85,1,1,1.302,-1,-1,-0.354771195417325,1,1,1,1
1,2,12,86,1,0,1.831,1,1,0.287739366069454,-1,-1,1,1
1,2,12,87,-1,0,1.061,1,-1,1.46544470615465,1,1,-1,-1
1,2,12,88,1,1,1.07,-1,-1,-0.41927501594375,-1,1,1,1
1,2,12,89,1,1,1.061,1,1,-0.390099138235169,-1,-1,1,-1
1,2,12,90,-1,0,1.901,1,1,-0.41927501594375,1,1,-1,-1
1,2,12,91,1,1,1.461,-1,-1,1.5950341514922,1,1,1,1
1,2,12,92,1,1,1.011,1,1,0.685716952661237,-1,-1,1,1
1,2,12,93,1,1,1.131,1,1,-0.586010049714343,1,1,-1,-1
1,2,12,94,1,1,1.061,1,1,-0.19859272962205,1,1,1,1
1,2,12,95,-1,1,1.721,1,1,-0.41927501594375,1,1,1,1
1,2,12,96,1,1,1.371,-1,1,1.25144118952884,1,1,1,1
1,2,12,97,1,0,0.821,1,1,0.466104067616278,1,-1,1,1
1,2,12,98,-1,1,1.151,1,-1,-1.30505300493978,1,1,-1,1
1,2,12,99,-1,0,0.951,-1,1,-0.138046407980077,-1,1,1,1
1,2,12,100,1,1,1.441,-1,-1,-0.797334610181329,1,-1,1,-1
1,2,12,101,-1,0,1.241,1,1,0.638106561276075,-1,-1,-1,1
1,2,12,102,-1,0,1.191,-1,-1,0.12199869963151,1,1,-1,-1
1,2,12,103,1,1,1.902,-1,-1,-0.0200475992553692,-1,-1,1,1
1,2,12,104,-1,1,0.961,1,1,1.59685065387823,-1,-1,-1,-1
1,2,12,105,-1,1,0.811,-1,1,-0.761203745092579,1,1,-1,-1
1,2,12,106,1,1,0.971,-1,1,-1.34738293676524,1,-1,1,1
1,2,12,107,1,1,0.871,1,1,-0.725446912237738,1,-1,-1,1
1,2,12,108,1,0,1.281,1,1,-1.10085175428648,1,1,-1,1
1,2,12,109,1,0,0.961,1,-1,0.231574239024286,1,1,1,1
1,2,12,110,1,1,0.851,1,-1,-0.761203745092579,-1,1,1,1
1,2,12,111,-1,0,1.031,1,1,-1.18108949021913,-1,1,1,-1
1,2,12,112,-1,1,1.541,-1,-1,-0.518347176801172,1,1,1,-1
1,2,12,113,-1,0,0.921,-1,1,0.869855378251546,-1,-1,1,1
1,2,12,114,1,0,1.521,-1,-1,-0.908051755904262,1,-1,-1,-1
1,2,12,115,1,1,0.83,1,-1,0.824732865789815,-1,-1,-1,1
1,2,12,116,1,1,1.001,1,1,-1.26739459089136,-1,1,-1,-1
1,2,12,117,-1,0,0.681,1,1,-0.620345115812943,1,1,1,-1
1,2,12,118,-1,0,0.771,-1,-1,-1.95083042823244,1,1,1,1
1,2,12,119,-1,0,1.121,-1,-1,-1.52208915967855,-1,-1,1,1
1,2,13,1,-1,0,1.651,1,1,1.37174957241144,-1,-1,-1,-1
1,2,13,2,-1,0,1.561,-1,-1,1.10801278767716,-1,-1,-1,-1
1,2,13,3,1,1,0.981,-1,-1,0.914396023902703,-1,-1,-1,-1
1,2,13,4,-1,0,1.411,1,1,-0.690056446818592,-1,-1,-1,-1
1,2,13,5,1,1,1.061,-1,-1,0.56543741797645,1,1,-1,-1
1,2,13,6,1,1,1.121,1,1,-0.41927501594375,-1,-1,1,1
1,2,13,7,-1,1,1.972,1,1,-0.229268590281261,1,1,-1,-1
1,2,13,8,1,1,0.931,-1,1,1.72168899338196,1,1,1,1
1,2,13,9,-1,0,1.281,1,1,-0.870750322034994,1,-1,1,1
1,2,13,10,1,1,0.941,-1,-1,0.231574239024286,1,1,-1,1
1,2,13,11,-1,0,2.132,1,1,-0.833847415380827,-1,-1,1,1
1,2,13,12,-1,1,1.331,-1,-1,1.99114948445703,1,1,-1,-1
1,2,13,13,-1,0,1.03,-1,1,0.363829261823808,-1,-1,1,1
1,2,13,14,1,1,1.761,-1,-1,-0.521699024912265,1,-1,-1,-1
1,2,13,15,-1,0,1.051,1,1,1.33080319205469,-1,-1,-1,1
1,2,13,16,1,1,1.401,-1,-1,-0.451984343783406,1,1,-1,-1
1,2,13,17,-1,0,1.621,1,1,0.540870605969504,-1,-1,1,1
1,2,13,18,-1,0,1.271,-1,-1,1.04467215195241,1,1,-1,-1
1,2,13,19,1,1,1.281,-1,-1,0.204504514210293,-1,-1,1,1
1,2,13,20,-1,0,1.511,1,1,0.231574239024286,-1,-1,-1,-1
1,2,13,21,-1,1,1.962,-1,-1,0.801948619537926,1,1,-1,-1
1,2,13,22,-1,0,1.141,-1,1,1.70412881724097,-1,-1,1,1
1,2,13,23,-1,0,1.612,-1,-1,-0.168186906450531,1,-1,-1,-1
1,2,13,24,-1,0,1.061,-1,-1,1.02544122515416,-1,-1,-1,1
1,2,13,25,1,1,1.691,-1,-1,-0.41927501594375,-1,-1,-1,-1
1,2,13,26,1,1,0.98,1,1,1.19069966161183,-1,-1,-1,-1
1,2,13,27,1,1,1.171,1,1,-0.693579220410465,1,1,-1,-1
1,2,13,28,1,1,1.111,1,1,-0.0785431413361535,1,1,1,1
1,2,13,29,1,0,0.901,1,1,-0.260219327905948,1,1,1,1
1,2,13,30,-1,0,1.402,1,-1,-0.983885300332445,1,1,1,1
1,2,13,31,1,0,1.551,-1,-1,0.543335164909191,-1,1,1,1
1,2,13,32,1,0,1.311,1,-1,0.892197495007245,-1,-1,1,-1
1,2,13,33,-1,1,0.801,1,-1,0.311533346779945,-1,1,-1,-1
1,2,13,34,1,0,1,-1,1,-1.39023806724081,-1,1,1,-1
1,2,13,35,-1,0,1.211,1,-1,-0.623797469131264,1,-1,1,-1
1,2,13,36,-1,0,0.901,-1,-1,0.0374737834789038,-1,1,-1,1
1,2,13,37,-1,1,1.211,-1,-1,-0.983885300332445,-1,-1,1,-1
1,2,13,38,-1,0,1.141,-1,1,0.0374737834789038,-1,-1,-1,-1
1,2,13,39,-1,0,1.141,-1,-1,-0.168186906450531,1,-1,-1,-1
1,2,13,40,1,1,1.401,-1,-1,-0.168186906450531,-1,-1,-1,1
1,2,13,41,1,1,1.061,1,1,0.540870605969504,-1,-1,-1,-1
1,2,13,42,-1,0,1.121,1,1,-0.41927501594375,1,1,-1,-1
1,2,13,43,1,0,1.491,-1,-1,-0.229268590281261,1,1,1,1
1,2,13,44,1,0,0.75,1,-1,0.755924231634231,-1,-1,1,1
1,2,13,45,-1,1,0.941,1,-1,-1.6174741339368,-1,1,-1,-1
1,2,13,46,1,1,1.021,-1,1,-0.833847415380827,-1,1,1,-1
1,2,13,47,-1,0,1.24,1,1,-0.552012932663332,1,-1,1,-1
1,2,13,48,-1,1,1.391,-1,-1,0.119214274484812,1,1,-1,1
1,2,13,49,1,0,0.88,-1,1,0.516127812434173,-1,-1,1,1
1,2,13,50,-1,1,0.991,1,-1,-1.065344059679,1,-1,-1,-1
1,2,13,51,1,0,1.111,-1,1,-0.65502491725392,-1,1,-1,1
1,2,13,52,-1,0,1.482,1,-1,-0.260219327905948,1,-1,1,-1
1,2,13,53,1,0,1.611,-1,-1,0.73501147830148,-1,1,-1,1
1,2,13,54,1,1,0.741,1,-1,1.02329783122411,-1,-1,1,-1
1,2,13,55,-1,0,2.231,1,1,-1.65917378575808,-1,1,-1,-1
1,2,13,56,1,0,1.26,-1,-1,2.14792809882843,1,1,1,-1
1,2,13,57,1,1,1.381,1,-1,0.174480720841308,-1,-1,1,1
1,2,13,58,1,1,0.91,1,1,0.491206497921652,-1,1,-1,-1
1,2,13,59,-1,0,1.091,1,1,-0.9495540261313,1,1,1,-1
1,2,13,60,1,1,0.811,-1,-1,-0.322965453120403,1,1,1,1
1,2,13,61,-1,0,1.001,1,1,-1.34738293676524,-1,-1,1,1
1,2,13,62,-1,0,1.041,-1,-1,-0.620345115812943,1,1,-1,-1
1,2,13,63,1,1,0.981,-1,-1,-0.485006385043248,-1,-1,1,1
1,2,13,64,-1,0,1.531,1,1,-0.690056446818592,-1,-1,-1,-1
1,2,13,65,-1,1,1.011,-1,-1,0.847367803982324,1,1,-1,-1
1,2,13,66,1,0,1.571,-1,1,-0.586010049714343,-1,-1,1,1
1,2,13,67,1,1,0.901,1,-1,0.936452798773595,1,-1,-1,-1
1,2,13,68,-1,0,0.83,1,1,-0.983885300332445,-1,1,-1,1
1,2,13,69,1,0,1.031,-1,-1,-1.26739459089136,1,1,1,-1
1,2,13,70,1,0,1.051,1,-1,-0.518347176801172,-1,-1,1,1
1,2,13,71,-1,1,0.931,1,-1,-0.451984343783406,-1,1,-1,-1
1,2,13,72,1,0,1.131,-1,1,-0.870750322034994,-1,1,1,-1
1,2,13,73,-1,0,0.971,1,-1,-0.19859272962205,1,-1,1,-1
1,2,13,74,1,1,1.471,-1,-1,-0.725446912237738,-1,1,-1,1
1,2,13,75,-1,0,0.901,1,1,0.709278293730017,-1,-1,1,-1
1,2,13,76,1,1,0.971,-1,-1,-0.983885300332445,1,1,-1,-1
1,2,13,77,-1,0,1.602,1,1,-0.725446912237738,-1,-1,1,1
1,2,13,78,-1,0,1.572,-1,-1,1.00394719681875,1,1,-1,-1
1,2,13,79,-1,0,1.161,-1,-1,0.938650749345648,-1,-1,1,1
1,2,13,80,1,0,1.23,-1,-1,-0.108166643731305,-1,-1,-1,-1
1,2,13,81,-1,1,1.671,1,-1,0.0912458689821473,-1,-1,-1,-1
1,2,13,82,1,1,1.291,-1,1,1.14960364788888,-1,1,-1,-1
1,2,13,83,-1,0,0.841,1,1,0.258433466181276,1,-1,1,-1
1,2,13,84,1,0,1.791,-1,-1,-1.22191832503392,1,1,-1,1
1,2,13,85,-1,0,1.331,1,-1,1.38915051202162,-1,-1,1,1
1,2,13,86,-1,0,0.811,-1,-1,0.363829261823808,-1,1,-1,-1
1,2,13,87,1,1,1.841,-1,-1,-1.34738293676524,-1,-1,1,-1
1,2,13,88,1,1,1.281,1,1,1.48425782024201,-1,-1,-1,-1
1,2,13,89,1,1,1.201,1,1,0.231574239024286,1,1,-1,-1
1,2,13,90,1,0,0.86,1,1,0.00883282992901193,1,1,1,1
1,2,13,91,-1,0,1.031,1,-1,-1.14475167656772,1,1,1,1
1,2,13,92,1,1,0.811,-1,-1,-0.518347176801172,-1,1,1,1
1,2,13,93,1,0,1.05,1,1,-1.34738293676524,-1,-1,1,-1
1,2,13,94,1,1,0.9,1,-1,-0.455272377546623,1,1,-1,-1
1,2,13,95,-1,0,0.97,1,1,-0.987721035548871,-1,1,1,1
1,2,13,96,1,1,1.231,-1,-1,-0.729005984378936,1,1,1,-1
1,2,13,97,-1,1,0.76,1,1,0.0940529225356061,-1,-1,1,1
1,2,13,98,1,0,0.88,-1,1,-1.57172407162188,1,1,-1,-1
1,2,13,99,1,1,1.921,1,-1,-1.065344059679,1,-1,1,1
1,2,13,100,1,0,1.131,1,1,1.63118392371047,-1,1,-1,1
1,2,13,101,-1,0,1.081,1,-1,-0.19859272962205,1,1,1,-1
1,2,13,102,1,0,1.141,-1,-1,-0.354771195417325,-1,1,1,1
1,2,13,103,-1,1,0.93,1,-1,-0.168186906450531,-1,-1,1,-1
1,2,13,104,-1,1,1.181,-1,1,-0.874462390320725,-1,1,-1,-1
1,2,13,105,1,1,1.341,-1,1,-0.0491715425203689,1,-1,1,-1
1,2,13,106,1,1,0.941,1,1,0.38968326881475,1,-1,-1,1
1,2,13,107,-1,1,0.84,1,1,-0.833847415380827,1,1,-1,1
1,2,13,108,-1,0,0.84,-1,1,-1.22602787841271,1,1,1,1
1,2,13,109,-1,0,1.321,-1,-1,-1.22602787841271,1,-1,1,1
1,2,13,110,-1,0,1.02,-1,-1,0.337780275563286,-1,-1,-1,1
1,2,13,111,1,1,0.8,-1,-1,-0.55539762593508,-1,-1,-1,-1
1,2,13,112,-1,1,0.751,1,1,-1.39455296999735,-1,-1,-1,-1
1,2,13,113,1,1,0.85,-1,1,-1.61287176255977,1,1,-1,-1
1,2,13,114,-1,0,1.251,1,1,-1.18515072432301,1,-1,1,1
1,2,13,115,-1,0,0.901,-1,-1,0.149720190384564,1,1,-1,1
1,2,13,116,-1,1,0.951,-1,-1,-0.983885300332445,-1,-1,1,1
1,2,13,117,1,1,0.801,-1,1,-0.797334610181329,-1,-1,-1,-1
1,2,13,118,1,1,1.051,1,1,-1.39023806724081,1,-1,-1,-1
1,2,13,119,1,0,0.961,1,1,-0.451984343783406,1,1,-1,1
2,1,1,1,-1,0,1.231,1,-1,0.0703476439522716,1,1,1,1
2,1,1,2,-1,0,1.321,-1,-1,-0.404907666093094,-1,1,1,1
2,1,1,3,-1,0,1.071,-1,-1,-0.115075029115172,-1,-1,1,-1
2,1,1,4,1,1,0.63,-1,-1,-0.976808569408052,-1,-1,-1,-1
2,1,1,5,1,1,0.84,1,1,-3.15635275133403,-1,-1,-1,-1
2,1,1,6,1,1,0.77,1,1,-1.97470479723137,1,1,-1,-1
2,1,1,7,1,1,1.051,1,1,-2.33210216553865,1,1,1,1
2,1,1,8,-1,0,0.981,1,1,-1.05423741435275,1,1,1,1
2,1,1,9,1,1,0.921,-1,-1,-1.33734501206965,1,1,1,1
2,1,1,10,1,1,1.021,1,1,-1.59657793974988,-1,-1,1,1
2,1,1,11,-1,0,1.181,1,1,-1.17318815717297,1,1,-1,-1
2,1,1,12,1,1,1.161,-1,-1,-0.57522553920523,1,1,1,1
2,1,1,13,1,1,1.101,1,1,-0.645380593778867,-1,-1,1,1
2,1,1,14,1,1,1.131,1,1,-0.863335093582935,1,1,-1,-1
2,1,1,15,-1,0,1.271,1,1,-0.752912352523772,1,1,1,1
2,1,1,16,1,1,1.1,-1,-1,-0.273562227529013,1,1,1,1
2,1,1,17,-1,0,1.231,1,1,-0.86706746875362,-1,-1,1,1
2,1,1,18,-1,0,1.231,-1,-1,-0.404907666093094,1,1,-1,-1
2,1,1,19,1,1,1.271,-1,-1,-0.404907666093094,-1,-1,1,1
2,1,1,20,-1,0,1.231,1,1,-0.273562227529013,-1,-1,-1,-1
2,1,1,21,-1,0,1.491,-1,-1,-0.404907666093094,1,1,-1,-1
2,1,1,22,-1,0,1.651,-1,-1,0.382168156431828,-1,-1,1,1
2,1,1,23,1,1,1.051,-1,-1,0.800860409804312,-1,-1,-1,-1
2,1,1,24,-1,0,1.411,1,1,-1.05423741435275,-1,-1,-1,-1
2,1,1,25,1,1,1.101,-1,-1,0.155647436347996,1,1,-1,-1
2,1,1,26,-1,0,1.371,1,1,-0.863335093582935,-1,-1,1,1
2,1,1,27,1,1,1.151,-1,-1,0.0375234485513911,1,1,-1,-1
2,1,1,28,-1,0,1.251,1,1,-0.680912637092515,-1,-1,1,1
2,1,1,29,1,1,1.181,-1,-1,-0.338709962660982,1,1,-1,-1
2,1,1,30,-1,0,1.801,1,1,-0.57522553920523,-1,-1,1,1
2,1,1,31,-1,0,1.361,-1,-1,1.15805045011555,1,1,-1,-1
2,1,1,32,-1,0,1.301,-1,-1,0.00745392485592175,-1,-1,1,1
2,1,1,33,1,1,1.301,-1,-1,-0.177738007864644,-1,-1,-1,-1
2,1,1,34,-1,0,1.501,1,1,-0.177738007864644,-1,-1,-1,-1
2,1,1,35,1,1,1.111,-1,-1,0.40962466637273,1,1,-1,-1
2,1,1,36,-1,0,1.01,1,1,-0.826196697783832,-1,-1,1,1
2,1,1,37,1,1,1.081,-1,-1,-1.21768122099761,1,1,-1,-1
2,1,1,38,1,1,1.061,1,1,-0.938634701773057,-1,-1,1,1
2,1,1,39,1,1,1.291,1,1,-1.01534054609493,1,1,-1,-1
2,1,1,40,-1,0,1.751,1,1,-0.209431672771663,1,1,1,1
2,1,1,41,1,1,2.041,-1,-1,1.04240433739192,1,1,1,1
2,1,1,42,-1,1,1.381,1,1,1.67188705804172,-1,-1,1,1
2,1,1,43,-1,0,2.052,-1,1,0.0673744418009451,1,1,-1,-1
2,1,1,44,1,1,1.061,-1,-1,1.69396493407406,1,-1,1,1
2,1,1,45,1,1,0.951,1,1,-1.01534054609493,-1,-1,-1,1
2,1,1,46,1,1,1.411,1,1,-1.46491671295314,1,1,-1,-1
2,1,1,47,1,1,1.031,1,1,0.155647436347996,1,1,1,1
2,1,1,48,-1,0,1.22,1,1,-1.13315393583435,1,1,1,1
2,1,1,49,-1,0,1.391,-1,-1,-0.441776346529271,1,1,1,1
2,1,1,50,-1,0,1.191,-1,-1,0.0970100580434107,-1,-1,1,1
2,1,1,51,1,0,1.311,-1,-1,-0.540592293609971,-1,-1,-1,-1
2,1,1,52,1,1,1.511,1,-1,-0.146287022711081,-1,-1,-1,-1
2,1,1,53,-1,0,0.931,1,1,0.436898860826373,-1,1,-1,-1
2,1,1,54,-1,0,1.641,-1,-1,-1.55222028843546,1,1,1,-1
2,1,1,55,-1,0,1.26,-1,-1,0.775906028111763,-1,-1,1,1
2,1,1,56,1,1,1.251,-1,-1,-0.309265545585501,-1,-1,-1,-1
2,1,1,57,-1,0,1.581,1,1,-0.338709962660982,-1,-1,-1,-1
2,1,1,58,1,1,1.021,-1,-1,0.622909622681226,1,1,-1,-1
2,1,1,59,-1,1,1.511,1,1,-1.17318815717297,-1,-1,1,1
2,1,1,60,-1,0,1.161,-1,1,0.436898860826373,1,1,-1,-1
2,1,1,61,-1,0,1.271,-1,-1,-0.645380593778867,1,-1,1,1
2,1,1,62,1,1,1.101,-1,-1,-0.273562227529013,-1,-1,-1,1
2,1,1,63,-1,0,1.071,1,1,-0.863335093582935,-1,-1,-1,-1
2,1,1,64,1,1,1.521,-1,-1,-0.976808569408052,1,1,-1,-1
2,1,1,65,1,1,1.161,1,1,0.463993145036603,-1,-1,1,1
2,1,1,66,-1,1,1.311,1,1,-0.645380593778867,1,1,-1,-1
2,1,1,67,1,1,1.401,-1,1,-0.146287022711081,1,1,1,1
2,1,1,68,1,1,0.991,1,1,0.126433382949133,1,-1,1,1
2,1,1,69,1,1,1.24,1,1,-1.29568665708827,1,1,-1,1
2,1,1,70,-1,0,1.101,1,1,-0.37498660514209,1,1,1,1
2,1,1,71,1,1,1.441,-1,-1,-0.863335093582935,1,1,1,1
2,1,1,72,1,0,1.321,1,1,0.242063216800281,-1,-1,1,1
2,1,1,73,1,1,1.111,1,-1,-0.115075029115172,1,1,-1,-1
2,1,1,74,-1,1,1.33,1,1,-0.826196697783832,-1,1,1,1
2,1,1,75,1,1,1.261,-1,1,-0.0871855916504303,1,1,1,-1
2,1,1,76,-1,0,1.441,1,1,-0.306006934869006,1,-1,1,1
2,1,1,77,-1,0,1.571,-1,-1,0.242063216800281,1,1,-1,1
2,1,1,78,-1,0,1.131,-1,-1,0.596846853811786,-1,-1,1,1
2,1,1,79,-1,0,0.951,-1,-1,-0.752912352523772,-1,-1,-1,-1
2,1,1,80,-1,0,1.661,-1,-1,-1.46491671295314,-1,-1,-1,-1
2,1,1,81,1,1,1.04,-1,-1,0.825664099867537,-1,-1,-1,-1
2,1,1,82,1,1,0.97,1,1,-1.0974537522994,-1,-1,-1,-1
2,1,1,83,1,1,0.861,1,1,-1.38366253466181,1,1,-1,-1
2,1,1,84,1,1,0.891,1,1,-1.87328041961829,1,1,1,1
2,1,1,85,1,1,1.211,1,1,-1.73259959391682,1,1,1,1
2,1,1,86,-1,1,1.471,1,1,-0.472189737091838,1,1,1,1
2,1,1,87,-1,1,1.492,-1,1,0.326698325002808,1,1,1,1
2,1,1,88,-1,1,1.311,-1,1,0.384922081169728,1,-1,1,1
2,1,1,89,-1,0,1.301,-1,1,-0.146287022711081,1,-1,-1,1
2,1,1,90,1,1,1.181,-1,-1,-0.177738007864644,1,-1,-1,1
2,1,1,91,1,1,1.251,1,1,-0.57522553920523,-1,-1,-1,1
2,1,1,92,1,1,1.031,1,1,-0.338709962660982,1,1,-1,-1
2,1,1,93,-1,0,1,1,1,-1.13315393583435,1,1,1,1
2,1,1,94,-1,0,1.031,-1,-1,-1.2585519919674,1,1,1,1
2,1,1,95,1,1,1.271,-1,-1,-1.13315393583435,-1,-1,1,1
2,1,1,96,1,1,1.441,1,1,-0.273562227529013,-1,-1,-1,-1
2,1,1,97,-1,0,1.211,1,1,0.242063216800281,1,1,-1,-1
2,1,1,98,1,1,1.281,-1,-1,-0.472189737091838,1,1,1,1
2,1,1,99,1,1,1.191,1,1,-0.241371791668434,-1,-1,1,1
2,1,1,100,1,0,1.1,1,1,-0.540592293609971,1,1,-1,-1
2,1,1,101,1,1,1.071,1,-1,-0.86706746875362,1,1,1,1
2,1,1,102,-1,0,1.521,1,1,-0.976808569408052,-1,1,1,1
2,1,1,103,-1,0,1.271,-1,-1,0.463993145036603,1,1,1,-1
2,1,1,104,-1,0,1.251,-1,-1,-0.273562227529013,-1,-1,1,1
2,1,1,105,-1,0,1.05,-1,-1,-0.338709962660982,-1,-1,-1,-1
2,1,1,106,1,0,1.371,-1,-1,-1.05814743710656,-1,-1,-1,-1
2,1,1,107,-1,0,1.231,1,-1,0.0375234485513911,-1,-1,-1,-1
2,1,1,108,1,0,1.091,-1,-1,-0.404907666093094,-1,1,-1,-1
2,1,1,109,-1,0,1.031,1,-1,-0.900812348038677,-1,-1,1,-1
2,1,1,110,-1,0,1.071,-1,-1,-1.13315393583435,-1,1,-1,-1
2,1,1,111,1,1,0.931,-1,-1,-0.976808569408052,-1,-1,1,-1
2,1,1,112,-1,0,1.171,1,1,-1.55222028843546,-1,-1,-1,-1
2,1,1,113,-1,0,1.251,-1,-1,-0.610153288722412,1,1,-1,-1
2,1,1,114,1,0,1.051,-1,-1,-0.338709962660982,-1,-1,1,1
2,1,1,115,-1,0,1.201,1,-1,-1.05423741435275,-1,-1,-1,-1
2,1,1,116,1,1,0.741,-1,-1,-0.50624862703508,-1,1,-1,-1
2,1,1,117,-1,1,1.331,1,1,-2.48978781504859,-1,-1,1,-1
2,1,1,118,-1,0,1.161,-1,1,-0.0840984223260634,1,1,-1,-1
2,1,1,119,1,1,0.78,-1,-1,-0.645380593778867,1,-1,1,1
2,1,2,1,1,1,1.372,1,-1,-0.789391087782578,-1,-1,-1,1
2,1,2,2,-1,0,1.241,1,1,0.0405183291745652,1,1,-1,-1
2,1,2,3,1,1,1.181,-1,-1,-0.371675457366882,1,1,1,1
2,1,2,4,1,1,1.201,1,1,-0.57522553920523,-1,-1,1,1
2,1,2,5,1,1,0.98,1,1,-0.50624862703508,1,1,-1,-1
2,1,2,6,1,1,1.1,1,1,-1.34153417978893,1,1,1,1
2,1,2,7,1,1,0.971,1,1,-0.86706746875362,1,1,1,1
2,1,2,8,-1,0,1.141,1,1,-1.37943020188888,1,1,1,1
2,1,2,9,1,1,1.011,-1,-1,-0.716754737057916,1,1,1,1
2,1,2,10,-1,0,1.011,1,1,-1.21361642245439,-1,-1,1,1
2,1,2,11,-1,0,1.101,-1,-1,-1.21361642245439,1,1,-1,-1
2,1,2,12,-1,0,1.121,-1,-1,-0.863335093582935,-1,-1,1,1
2,1,2,13,-1,0,1.09,-1,-1,-0.789391087782578,-1,-1,-1,-1
2,1,2,14,1,1,1.181,-1,-1,-0.904578949488054,-1,-1,-1,-1
2,1,2,15,-1,0,1.571,1,1,-0.57522553920523,-1,-1,-1,-1
2,1,2,16,1,1,1.08,-1,-1,0.596846853811786,1,1,-1,-1
2,1,2,17,1,1,0.981,1,1,-0.942436163027937,-1,-1,1,1
2,1,2,18,-1,0,1.211,1,1,-1.33734501206965,1,1,-1,-1
2,1,2,19,-1,0,1.211,-1,-1,-0.472189737091838,1,1,1,1
2,1,2,20,1,1,1.191,-1,-1,-0.472189737091838,-1,-1,1,1
2,1,2,21,-1,0,1.091,1,1,-0.540592293609971,-1,-1,-1,-1
2,1,2,22,1,1,1.121,-1,-1,-0.900812348038677,1,1,-1,-1
2,1,2,23,1,1,1.351,1,1,-0.789391087782578,-1,-1,1,1
2,1,2,24,1,1,1.421,1,1,-0.0228373524918859,1,1,-1,-1
2,1,2,25,1,1,1.491,1,1,0.184655174089361,1,1,1,1
2,1,2,26,-1,0,1.241,1,1,0.382168156431828,1,1,1,1
2,1,2,27,-1,0,1.831,-1,-1,-0.371675457366882,1,1,1,1
2,1,2,28,1,0,1.241,-1,-1,1.22590681590319,-1,-1,1,1
2,1,2,29,-1,1,1.251,1,-1,-0.371675457366882,-1,-1,-1,-1
2,1,2,30,-1,0,1.921,-1,1,-0.338709962660982,-1,1,-1,-1
2,1,2,31,1,1,1.701,-1,-1,1.42299850002535,1,-1,1,-1
2,1,2,32,1,1,1.241,1,1,0.923407643478767,-1,-1,-1,1
2,1,2,33,1,0,1.581,1,1,-0.371675457366882,1,1,-1,-1
2,1,2,34,-1,1,1.441,1,-1,0.622909622681226,1,1,1,1
2,1,2,35,-1,1,1.131,-1,1,0.242063216800281,-1,1,1,1
2,1,2,36,-1,1,1.111,-1,1,-0.752912352523772,1,-1,1,-1
2,1,2,37,1,1,1.501,-1,1,-0.826196697783832,1,-1,-1,1
2,1,2,38,1,1,1.201,1,1,0.40962466637273,1,-1,-1,1
2,1,2,39,-1,0,1.171,1,1,-0.50624862703508,1,1,-1,1
2,1,2,40,1,1,1.321,-1,-1,-0.610153288722412,1,1,1,1
2,1,2,41,1,1,1.751,1,1,-0.115075029115172,-1,-1,1,1
2,1,2,42,1,1,1.061,1,1,1.04240433739192,1,1,-1,-1
2,1,2,43,-1,0,1.271,1,1,-1.01534054609493,1,1,1,1
2,1,2,44,1,1,1.491,-1,-1,-0.273562227529013,1,1,1,1
2,1,2,45,-1,1,1.191,1,1,0.382168156431828,-1,-1,1,1
2,1,2,46,-1,1,1.371,-1,1,-0.540592293609971,1,1,-1,-1
2,1,2,47,1,1,1.191,-1,1,0.0375234485513911,1,-1,1,1
2,1,2,48,-1,0,1.621,1,1,-0.540592293609971,1,-1,-1,1
2,1,2,49,1,1,1.791,-1,-1,0.72553778699686,1,1,-1,1
2,1,2,50,-1,0,1.792,1,1,1.13518024296425,-1,-1,1,1
2,1,2,51,-1,0,1.101,-1,-1,1.13747300249501,1,1,-1,-1
2,1,2,52,1,1,0.981,-1,-1,-0.863335093582935,-1,-1,1,1
2,1,2,53,-1,0,1.081,1,1,-1.33734501206965,-1,-1,-1,-1
2,1,2,54,-1,0,1.411,-1,-1,-0.938634701773057,1,1,-1,-1
2,1,2,55,-1,0,1.171,-1,-1,0.155647436347996,-1,-1,1,1
2,1,2,56,-1,0,1.361,-1,-1,-0.610153288722412,-1,-1,-1,-1
2,1,2,57,-1,0,1.04,-1,-1,0.00745392485592175,-1,-1,-1,-1
2,1,2,58,-1,0,1.771,-1,-1,-1.0974537522994,-1,-1,-1,-1
2,1,2,59,-1,0,1.321,-1,-1,1.08905422659166,-1,-1,-1,-1
2,1,2,60,1,0,1.391,-1,-1,-0.115075029115172,-1,-1,-1,-1
2,1,2,61,1,1,1.181,1,-1,0.0970100580434107,-1,-1,-1,-1
2,1,2,62,-1,0,1.542,1,1,-0.57522553920523,-1,1,-1,-1
2,1,2,63,-1,0,1.381,-1,-1,0.520315967100568,1,1,1,-1
2,1,2,64,1,1,1.191,-1,-1,0.0673744418009451,-1,-1,1,1
2,1,2,65,1,1,1.061,1,1,-0.540592293609971,-1,-1,-1,-1
2,1,2,66,1,1,1.061,1,1,-1.01534054609493,1,1,-1,-1
2,1,2,67,-1,0,1.411,1,1,-1.01534054609493,1,1,1,1
2,1,2,68,1,1,1.09,-1,-1,0.155647436347996,1,1,1,1
2,1,2,69,1,1,1.331,1,1,-0.904578949488054,-1,-1,1,1
2,1,2,70,1,1,1.031,1,1,-0.0840984223260634,1,1,-1,-1
2,1,2,71,-1,0,1.081,1,1,-1.13315393583435,1,1,1,1
2,1,2,72,1,1,1.181,-1,-1,-0.938634701773057,1,1,1,1
2,1,2,73,-1,0,1.021,1,1,-0.57522553920523,-1,-1,1,1
2,1,2,74,-1,0,1.041,-1,-1,-1.17318815717297,1,1,-1,-1
2,1,2,75,1,1,1.02,-1,-1,-1.09350615123369,-1,-1,1,1
2,1,2,76,1,1,1.061,1,1,-1.17721312426889,-1,-1,-1,-1
2,1,2,77,1,1,0.961,1,1,-1.01534054609493,1,1,-1,-1
2,1,2,78,1,1,1.05,1,1,-1.4219510639405,1,1,1,1
2,1,2,79,-1,0,1.1,1,1,-1.05814743710656,1,1,1,1
2,1,2,80,-1,0,1.391,-1,-1,-0.86706746875362,1,1,1,1
2,1,2,81,-1,0,1.221,-1,-1,0.0970100580434107,-1,-1,1,1
2,1,2,82,-1,0,1.051,-1,-1,-0.438410939874215,-1,-1,-1,-1
2,1,2,83,1,1,1.2,-1,-1,-1.05423741435275,-1,-1,-1,-1
2,1,2,84,1,1,1.141,1,1,-0.509670100446338,-1,-1,-1,-1
2,1,2,85,-1,1,1.111,1,1,-0.716754737057916,1,1,-1,-1
2,1,2,86,1,0,1.161,-1,1,-0.826196697783832,1,1,1,1
2,1,2,87,-1,0,1.151,1,-1,-0.645380593778867,1,-1,1,1
2,1,2,88,1,0,1.03,-1,-1,-0.680912637092515,-1,1,-1,1
2,1,2,89,-1,0,0.99,1,-1,-1.13713984453405,-1,-1,1,-1
2,1,2,90,1,1,0.9,-1,-1,-1.29983353133522,-1,1,-1,-1
2,1,2,91,-1,0,1.031,1,1,-1.691318054549,-1,-1,1,-1
2,1,2,92,1,1,1.061,-1,-1,-1.13315393583435,1,1,-1,-1
2,1,2,93,1,1,1.111,1,1,-1.01534054609493,-1,-1,1,1
2,1,2,94,-1,0,1.221,1,1,-0.826196697783832,1,1,-1,-1
2,1,2,95,1,0,1.101,-1,-1,-0.438410939874215,1,1,1,1
2,1,2,96,1,1,1.081,1,-1,-0.863335093582935,-1,-1,1,1
2,1,2,97,1,1,1.171,1,1,-0.938634701773057,-1,1,-1,-1
2,1,2,98,-1,0,0.891,1,1,-0.610153288722412,1,1,1,-1
2,1,2,99,-1,0,1.111,-1,-1,-1.73259959391682,1,1,1,1
2,1,2,100,1,1,1.281,-1,-1,-0.826196697783832,-1,-1,1,1
2,1,2,101,1,1,1.101,1,1,-0.241371791668434,-1,-1,-1,-1
2,1,2,102,-1,0,1.15,1,1,-0.863335093582935,1,1,-1,-1
2,1,2,103,-1,0,1.111,-1,-1,-0.684482805585612,1,1,1,1
2,1,2,104,-1,0,0.931,-1,-1,-0.826196697783832,-1,-1,1,1
2,1,2,105,-1,0,1.111,-1,-1,-1.55222028843546,-1,-1,-1,-1
2,1,2,106,1,1,1.251,-1,-1,-0.826196697783832,-1,-1,-1,-1
2,1,2,107,1,1,1.391,1,1,-0.338709962660982,-1,-1,-1,-1
2,1,2,108,1,1,1.051,1,1,0.0970100580434107,1,1,-1,-1
2,1,2,109,-1,0,1.061,1,1,-1.05423741435275,1,1,1,1
2,1,2,110,1,0,1.041,-1,-1,-1.01534054609493,1,1,1,1
2,1,2,111,1,1,1.031,1,-1,-1.09350615123369,-1,-1,1,1
2,1,2,112,-1,0,0.93,1,1,-1.13315393583435,-1,1,-1,-1
2,1,2,113,-1,0,1.111,-1,-1,-1.55663455924475,1,1,1,-1
2,1,2,114,-1,0,1.451,-1,-1,-0.826196697783832,-1,-1,1,1
2,1,2,115,-1,0,1.38,-1,-1,0.270469129408586,-1,-1,-1,-1
2,1,2,116,1,1,1.271,-1,-1,0.0643990859354483,-1,-1,-1,-1
2,1,2,117,-1,0,1.101,1,1,-0.273562227529013,-1,-1,-1,-1
2,1,2,118,-1,1,1.211,-1,-1,-0.863335093582935,1,1,-1,-1
2,1,2,119,-1,1,0.901,-1,1,-0.472189737091838,-1,-1,1,1
2,1,3,1,1,0,1.11,1,-1,-0.273562227529013,1,-1,-1,-1
2,1,3,2,-1,0,1.011,1,-1,-0.829895463087994,1,-1,-1,1
2,1,3,3,1,0,0.99,-1,-1,-1.21361642245439,-1,1,-1,1
2,1,3,4,1,1,1.351,1,-1,-1.29983353133522,-1,-1,1,-1
2,1,3,5,-1,0,1.031,1,1,-0.0228373524918859,-1,1,-1,-1
2,1,3,6,-1,0,1.041,-1,-1,-1.13315393583435,1,1,1,-1
2,1,3,7,-1,0,1.411,-1,-1,-1.09350615123369,-1,-1,1,1
2,1,3,8,1,1,1.161,-1,-1,0.155647436347996,-1,-1,-1,-1
2,1,3,9,-1,0,1.441,1,1,-0.645380593778867,-1,-1,-1,-1
2,1,3,10,1,1,1.231,-1,-1,0.242063216800281,1,1,-1,-1
2,1,3,11,-1,0,1.471,1,1,-0.404907666093094,-1,-1,1,1
2,1,3,12,1,0,1.38,-1,-1,0.326698325002808,1,1,-1,-1
2,1,3,13,-1,0,1.561,1,-1,0.0643990859354483,-1,-1,1,1
2,1,3,14,1,1,1.612,-1,-1,0.570617654894859,-1,1,-1,-1
2,1,3,15,1,0,1.141,1,1,0.702668994650711,-1,-1,1,-1
2,1,3,16,-1,0,1.01,1,-1,-0.716754737057916,1,1,-1,-1
2,1,3,17,-1,1,1.001,-1,-1,-1.21768122099761,-1,1,1,1
2,1,3,18,1,1,1.051,-1,1,-1.25444656574585,-1,-1,1,-1
2,1,3,19,-1,0,0.931,1,1,-1.05423741435275,1,-1,-1,-1
2,1,3,20,1,0,1.011,-1,-1,-1.55222028843546,1,1,-1,1
2,1,3,21,1,1,1.05,1,-1,-1.21361642245439,-1,-1,1,1
2,1,3,22,1,1,1.27,1,1,-1.05814743710656,-1,1,-1,-1
2,1,3,23,1,1,1.261,1,1,-0.276795189988489,1,1,1,-1
2,1,3,24,1,1,1.151,1,1,-0.306006934869006,1,1,1,1
2,1,3,25,-1,0,1.061,1,1,-0.680912637092515,1,1,1,1
2,1,3,26,-1,0,1.091,-1,-1,-1.01534054609493,1,1,1,1
2,1,3,27,1,0,1.091,-1,-1,-0.900812348038677,-1,-1,1,1
2,1,3,28,1,0,1.121,1,-1,-0.900812348038677,-1,-1,-1,-1
2,1,3,29,1,0,1.071,1,-1,-0.789391087782578,-1,1,-1,-1
2,1,3,30,1,0,1.12,1,-1,-0.976808569408052,-1,1,1,-1
2,1,3,31,1,1,1.151,1,-1,-0.793056843128708,-1,1,1,-1
2,1,3,32,-1,0,1.111,1,1,-0.680912637092515,-1,1,1,-1
2,1,3,33,-1,0,0.871,-1,-1,-0.826196697783832,1,1,1,-1
2,1,3,34,1,0,1.021,-1,-1,-1.82584942383361,-1,-1,1,1
2,1,3,35,1,0,1.201,1,-1,-1.17318815717297,-1,-1,-1,-1
2,1,3,36,-1,0,1.141,1,-1,-0.50624862703508,-1,1,-1,-1
2,1,3,37,-1,0,1.061,-1,-1,-0.716754737057916,-1,1,1,-1
2,1,3,38,1,1,0.701,-1,-1,-1.01534054609493,-1,-1,1,-1
2,1,3,39,-1,0,1.401,1,1,-2.71772304950865,-1,-1,-1,-1
2,1,3,40,-1,0,1.421,-1,-1,0.126433382949133,1,1,-1,-1
2,1,3,41,1,0,1.361,-1,-1,0.184655174089361,-1,-1,1,1
2,1,3,42,-1,0,1.49,1,-1,0.00745392485592175,-1,-1,-1,-1
2,1,3,43,1,1,1.521,-1,-1,0.379412384042169,-1,1,-1,-1
2,1,3,44,-1,0,1.191,1,1,0.463993145036603,-1,-1,1,-1
2,1,3,45,1,1,0.961,-1,-1,-0.540592293609971,1,1,-1,-1
2,1,3,46,-1,0,0.931,1,1,-1.4219510639405,-1,-1,1,1
2,1,3,47,-1,0,1.011,-1,-1,-1.55222028843546,1,1,-1,-1
2,1,3,48,1,1,1.251,-1,-1,-1.21361642245439,-1,-1,1,1
2,1,3,49,1,1,1.371,1,1,-0.338709962660982,-1,-1,-1,-1
2,1,3,50,1,1,1.511,1,1,0.0375234485513911,1,1,-1,-1
2,1,3,51,1,1,0.891,1,1,0.436898860826373,1,1,1,1
2,1,3,52,-1,0,1.582,1,1,-1.73259959391682,1,1,1,1
2,1,3,53,-1,0,1.171,-1,-1,0.625506827062867,1,1,1,1
2,1,3,54,-1,0,1.621,-1,-1,-0.610153288722412,-1,-1,1,1
2,1,3,55,-1,0,1.11,-1,-1,0.72553778699686,-1,-1,-1,-1
2,1,3,56,-1,0,1.261,-1,-1,-0.829895463087994,-1,-1,-1,-1
2,1,3,57,-1,0,1.961,-1,-1,-0.306006934869006,-1,-1,-1,-1
2,1,3,58,-1,0,1.061,-1,-1,1.50764814387939,-1,-1,-1,-1
2,1,3,59,-1,0,1.071,-1,-1,-1.01534054609493,-1,-1,-1,-1
2,1,3,60,1,1,1.26,-1,-1,-0.976808569408052,-1,-1,-1,-1
2,1,3,61,1,1,1.11,1,1,-0.309265545585501,-1,-1,-1,-1
2,1,3,62,1,1,1.201,1,1,-0.829895463087994,1,1,-1,-1
2,1,3,63,-1,0,0.99,1,1,-0.50624862703508,1,1,1,1
2,1,3,64,1,1,1.191,-1,-1,-1.29983353133522,1,1,1,1
2,1,3,65,1,1,1.221,1,1,-0.540592293609971,-1,-1,1,1
2,1,3,66,1,1,1.28,1,1,-0.438410939874215,1,1,-1,-1
2,1,3,67,1,0,1.551,1,1,-0.244579506468486,1,1,1,1
2,1,3,68,-1,0,1.501,1,-1,0.544219886704802,1,1,1,1
2,1,3,69,1,0,1.512,-1,-1,0.40962466637273,-1,1,1,1
2,1,3,70,1,1,1.121,1,-1,0.439616345935559,-1,-1,1,-1
2,1,3,71,-1,1,1.001,1,1,-0.789391087782578,-1,1,-1,-1
2,1,3,72,1,1,1.261,-1,1,-1.25444656574585,1,1,1,-1
2,1,3,73,-1,0,1.01,1,1,-0.306006934869006,1,-1,1,1
2,1,3,74,-1,0,1,-1,-1,-1.21768122099761,1,1,-1,1
2,1,3,75,1,0,1.641,-1,-1,-1.2585519919674,-1,-1,1,1
2,1,3,76,-1,0,1.491,1,-1,0.775906028111763,-1,-1,-1,-1
2,1,3,77,-1,0,1.372,-1,-1,0.382168156431828,-1,1,-1,-1
2,1,3,78,1,1,0.931,-1,-1,0.0405183291745652,-1,-1,1,-1
2,1,3,79,1,1,1.571,1,1,-1.55222028843546,-1,-1,-1,-1
2,1,3,80,1,1,1.171,1,1,0.596846853811786,1,1,-1,-1
2,1,3,81,-1,0,0.941,1,1,-0.610153288722412,1,1,1,1
2,1,3,82,1,1,0.751,-1,-1,-1.50833655271659,1,1,1,1
2,1,3,83,-1,0,0.89,1,1,-2.43472695579635,-1,-1,1,1
2,1,3,84,-1,0,1.201,-1,-1,-1.73721214756573,1,1,-1,-1
2,1,3,85,1,0,1.071,-1,-1,-0.50624862703508,-1,-1,1,1
2,1,3,86,1,1,1.03,1,-1,-0.976808569408052,-1,-1,-1,-1
2,1,3,87,1,1,0.961,1,1,-1.13713984453405,-1,1,-1,-1
2,1,3,88,1,1,1.001,1,1,-1.4219510639405,1,1,1,-1
2,1,3,89,1,0,1.221,1,1,-1.25444656574585,1,1,1,1
2,1,3,90,-1,0,1.111,1,-1,-0.438410939874215,1,1,1,1
2,1,3,91,1,1,1.682,-1,-1,-0.826196697783832,-1,1,1,1
2,1,3,92,-1,0,1.391,1,1,0.87726935566438,-1,-1,1,-1
2,1,3,93,-1,1,1.15,-1,-1,0.0970100580434107,1,1,-1,-1
2,1,3,94,-1,0,1.101,-1,1,-0.684482805585612,-1,-1,1,1
2,1,3,95,-1,0,0.86,-1,-1,-0.863335093582935,1,-1,-1,-1
2,1,3,96,1,0,1.022,-1,-1,-1.87805378284313,-1,-1,-1,1
2,1,3,97,-1,0,0.8,1,-1,-1.16916713032936,-1,-1,-1,-1
2,1,3,98,1,0,1.081,-1,-1,-2.1751093520922,-1,1,-1,-1
2,1,3,99,-1,0,1.041,1,-1,-0.938634701773057,-1,-1,1,-1
2,1,3,100,-1,0,1.071,-1,-1,-1.09350615123369,-1,1,-1,-1
2,1,3,101,-1,0,1.021,-1,-1,-0.976808569408052,-1,-1,1,-1
2,1,3,102,-1,0,1.101,-1,-1,-1.17318815717297,-1,-1,-1,-1
2,1,3,103,-1,0,1.081,-1,-1,-0.863335093582935,-1,-1,-1,-1
2,1,3,104,1,1,1.17,-1,-1,-0.938634701773057,-1,-1,-1,-1
2,1,3,105,1,1,0.971,1,1,-0.613662454756197,-1,-1,-1,-1
2,1,3,106,1,1,0.901,1,1,-1.37943020188888,1,1,-1,-1
2,1,3,107,1,1,0.97,1,1,-1.68675672305003,1,1,1,1
2,1,3,108,-1,1,0.661,1,1,-1.38366253466181,1,1,1,1
2,1,3,109,-1,0,1.341,-1,1,-2.95905404054761,1,1,1,1
2,1,3,110,1,1,1.771,-1,-1,-0.0533536785394309,1,-1,1,1
2,1,3,111,1,0,1.221,1,1,1.08905422659166,-1,-1,-1,1
2,1,3,112,-1,0,1.501,1,-1,-0.438410939874215,1,1,-1,-1
2,1,3,113,-1,0,1.261,-1,-1,0.40962466637273,-1,1,1,1
2,1,3,114,-1,0,1.121,-1,-1,-0.306006934869006,-1,-1,1,-1
2,1,3,115,-1,0,1.081,-1,-1,-0.789391087782578,-1,-1,-1,-1
2,1,3,116,-1,0,1.261,-1,-1,-0.938634701773057,-1,-1,-1,-1
2,1,3,117,-1,0,1.061,-1,-1,-0.306006934869006,-1,-1,-1,-1
2,1,3,118,1,0,1.111,-1,-1,-1.01534054609493,-1,-1,-1,-1
2,1,3,119,-1,0,1.361,1,-1,-0.826196697783832,-1,-1,-1,-1
2,1,4,1,1,0,1.352,1,-1,0.40962466637273,-1,1,-1,-1
2,1,4,2,-1,0,1.331,1,-1,-0.0197981525066037,-1,-1,1,-1
2,1,4,3,-1,0,1.491,-1,-1,-0.0840984223260634,-1,1,-1,-1
2,1,4,4,-1,0,1.521,-1,-1,0.382168156431828,-1,-1,1,-1
2,1,4,5,1,1,0.7,-1,-1,0.463993145036603,-1,-1,-1,-1
2,1,4,6,1,1,1.652,1,1,-2.72358668875243,-1,-1,-1,-1
2,1,4,7,-1,1,1.471,1,1,0.803347529827448,1,1,-1,-1
2,1,4,8,-1,0,1.66,-1,1,0.326698325002808,1,1,1,1
2,1,4,9,-1,0,1.311,-1,-1,0.823190460170547,1,-1,1,1
2,1,4,10,1,1,1.261,-1,-1,-0.146287022711081,-1,-1,-1,1
2,1,4,11,-1,0,1.211,1,1,-0.306006934869006,-1,-1,-1,-1
2,1,4,12,-1,0,1.501,-1,-1,-0.472189737091838,1,1,-1,-1
2,1,4,13,1,1,0.981,-1,-1,0.40962466637273,-1,-1,1,1
