subj_idx,session,block,trial,stimulus,response,rt,prevstim,prevresp,prevrt,prev2resp,prev3resp,prev2stim,prev3stim,prev2rt,prev3rt
1,1,1,0,-1,0,0.674,-1,-1,1.06209259057219,-1,-1,-1,1,0.0746040196064976,-0.187436260279826
1,1,1,1,1,0,0.809,-1,-1,-1.63967154530854,-1,-1,-1,-1,1.06209259057219,0.0746040196064976
1,1,1,2,1,1,0.928,1,-1,-0.92079383569702,-1,-1,-1,-1,-1.63967154530854,1.06209259057219
1,1,1,3,-1,1,1.201,1,1,-0.380429825347504,-1,-1,1,-1,-0.92079383569702,-1.63967154530854
1,1,1,4,1,1,0.838,-1,1,0.634983563739748,1,-1,1,1,-0.380429825347504,-0.92079383569702
1,1,1,5,1,1,1.018,1,1,-0.782115786317287,1,1,-1,1,0.634983563739748,-0.380429825347504
1,1,1,6,1,1,1.413,1,1,-0.0159545755402795,1,1,1,-1,-0.782115786317287,0.634983563739748
1,1,1,7,-1,0,1.048,1,1,1.27507737794253,1,1,1,1,-0.0159545755402795,-0.782115786317287
1,1,1,8,1,0,1.618,-1,-1,0.0984069400237274,1,1,1,1,1.27507737794253,-0.0159545755402795
1,1,1,9,-1,0,1.258,1,-1,1.80852267845948,-1,1,-1,1,0.0984069400237274,1.27507737794253
1,1,1,10,1,1,0.929,-1,-1,0.817563296731239,-1,-1,1,-1,1.80852267845948,0.0984069400237274
1,1,1,11,1,1,0.81,1,1,-0.37618903721546,-1,-1,-1,1,0.817563296731239,1.80852267845948
1,1,1,12,-1,1,1.47,1,1,-0.915929633225455,1,-1,1,-1,-0.37618903721546,0.817563296731239
1,1,1,13,-1,0,1.648,-1,1,1.43079768390415,1,1,1,1,-0.915929633225455,-0.37618903721546
1,1,1,14,1,1,0.934,-1,-1,1.88086221579319,1,1,-1,1,1.43079768390415,-0.915929633225455
1,1,1,15,1,1,1.02,1,1,-0.355053337515197,-1,1,-1,-1,1.88086221579319,1.43079768390415
1,1,1,16,-1,0,0.812,1,1,-0.00822626805446031,1,-1,1,-1,-0.355053337515197,1.88086221579319
1,1,1,17,-1,0,0.75,-1,-1,-0.906219217946652,1,1,1,1,-0.00822626805446031,-0.355053337515197
1,1,1,18,-1,0,1.049,-1,-1,-1.21896922771652,-1,1,-1,1,-0.906219217946652,-0.00822626805446031
1,1,1,19,1,1,0.718,-1,-1,0.102162373212536,-1,-1,-1,-1,-1.21896922771652,-0.906219217946652
1,1,1,20,1,0,0.691,1,1,-1.3906616636017,-1,-1,-1,-1,0.102162373212536,-1.21896922771652
1,1,1,21,1,1,0.78,1,-1,-1.54158777238731,1,-1,1,-1,-1.3906616636017,0.102162373212536
1,1,1,22,1,0,0.93,1,1,-1.06453486931695,-1,1,1,1,-1.54158777238731,-1.3906616636017
1,1,1,23,1,1,0.543,1,-1,-0.37195281152446,1,-1,1,1,-1.06453486931695,-1.54158777238731
1,1,1,24,-1,1,1.108,1,1,-2.49066259080818,-1,1,1,1,-0.37195281152446,-1.06453486931695
1,1,1,25,1,1,1.046,-1,1,0.317623362128867,1,-1,1,1,-2.49066259080818,-0.37195281152446
1,1,1,26,1,1,0.749,1,1,0.0908853113755508,1,1,-1,1,0.317623362128867,-2.49066259080818
1,1,1,27,1,1,1.38,1,1,-1.22422282609426,1,1,1,-1,0.0908853113755508,0.317623362128867
1,1,1,28,-1,0,0.904,1,1,1.18202624779643,1,1,1,1,-1.22422282609426,0.0908853113755508
1,1,1,29,-1,0,0.986,-1,-1,-0.483603537498099,1,1,1,1,1.18202624779643,-1.22422282609426
1,1,1,30,-1,0,1.442,-1,-1,-0.141716048347904,-1,1,-1,1,-0.483603537498099,1.18202624779643
1,1,1,31,-1,0,1.198,-1,-1,1.35507282319404,-1,-1,-1,-1,-0.141716048347904,-0.483603537498099
1,1,1,32,-1,0,0.989,-1,-1,0.625135526759704,-1,-1,-1,-1,1.35507282319404,-0.141716048347904
1,1,1,33,1,0,0.962,-1,-1,-0.129753796919824,-1,-1,-1,-1,0.625135526759704,1.35507282319404
1,1,1,34,-1,0,0.722,1,-1,-0.238745304531255,-1,-1,-1,-1,-0.129753796919824,0.625135526759704
1,1,1,35,-1,0,0.573,-1,-1,-1.36878621067094,-1,-1,1,-1,-0.238745304531255,-0.129753796919824
1,1,1,36,1,1,1.142,-1,-1,-2.27891418884958,-1,-1,-1,1,-1.36878621067094,-0.238745304531255
1,1,1,37,-1,1,1.439,1,1,0.436634579112608,-1,-1,-1,-1,-2.27891418884958,-1.36878621067094
1,1,1,38,1,0,1.083,-1,1,1.34687239385038,1,-1,1,-1,0.436634579112608,-2.27891418884958
1,1,1,39,1,0,1.856,1,-1,0.227761602709592,1,1,-1,1,1.34687239385038,0.436634579112608
1,1,1,40,1,0,1.262,1,-1,2.348886688809,-1,1,1,-1,0.227761602709592,1.34687239385038
1,1,1,41,-1,0,1.02,1,-1,0.830063533896106,-1,-1,1,1,2.348886688809,0.227761602709592
1,1,1,42,-1,1,1.023,-1,-1,-0.00822626805446031,-1,-1,1,1,0.830063533896106,2.348886688809
1,1,1,43,-1,1,1.555,-1,1,0.0033378266009474,-1,-1,-1,1,-0.00822626805446031,0.830063533896106
1,1,1,44,1,0,1.294,-1,1,1.6521409553318,1,-1,-1,-1,0.0033378266009474,-0.00822626805446031
1,1,1,45,-1,0,1.2,1,-1,0.928662022623965,1,1,-1,-1,1.6521409553318,0.0033378266009474
1,1,1,46,1,1,0.631,-1,-1,0.631703620692959,-1,1,1,-1,0.928662022623965,1.6521409553318
1,1,1,47,-1,0,0.992,1,1,-1.8992529802604,-1,-1,-1,1,0.631703620692959,0.928662022623965
1,1,1,48,-1,0,1.136,-1,-1,-0.117827776495514,1,-1,1,-1,-1.8992529802604,0.631703620692959
1,1,1,49,1,0,1.049,-1,-1,0.415892276186382,-1,1,-1,1,-0.117827776495514,-1.8992529802604
1,1,1,50,1,0,1.26,1,-1,0.102162373212536,-1,-1,-1,-1,0.415892276186382,-0.117827776495514
1,1,1,51,-1,1,1.139,1,-1,0.823818375727329,-1,-1,1,-1,0.102162373212536,0.415892276186382
1,1,1,52,1,0,1.353,-1,1,0.426277085898119,-1,-1,1,1,0.823818375727329,0.102162373212536
1,1,1,53,-1,0,1.049,1,-1,1.10422318394525,1,-1,-1,1,0.426277085898119,0.823818375727329
1,1,1,54,-1,1,1.47,-1,-1,0.102162373212536,-1,1,1,-1,1.10422318394525,0.426277085898119
1,1,1,55,-1,0,0.93,-1,1,1.43079768390415,-1,-1,-1,1,0.102162373212536,1.10422318394525
1,1,1,56,-1,0,1.141,-1,-1,-0.37195281152446,1,-1,-1,-1,1.43079768390415,0.102162373212536
1,1,1,57,1,1,1.017,-1,-1,0.433185107669934,-1,1,-1,-1,-0.37195281152446,1.43079768390415
1,1,1,58,1,0,0.841,1,1,-0.019824424893529,-1,-1,-1,-1,0.433185107669934,-0.37195281152446
1,1,1,59,1,1,0.84,1,-1,-0.768044640669895,1,-1,1,-1,-0.019824424893529,0.433185107669934
1,1,1,60,1,1,0.931,1,1,-0.772729437653208,-1,1,1,1,-0.768044640669895,-0.019824424893529
1,1,1,61,1,1,1.22,1,1,-0.367721138468073,1,-1,1,1,-0.772729437653208,-0.768044640669895
1,1,1,62,1,1,1.139,1,1,0.696788927317844,1,1,1,1,-0.367721138468073,-0.772729437653208
1,1,1,63,-1,0,1.225,1,1,0.426277085898119,1,1,1,1,0.696788927317844,-0.367721138468073
1,1,1,64,-1,0,1.138,-1,-1,0.71289353627063,1,1,1,1,0.426277085898119,0.696788927317844
1,1,1,65,-1,0,0.811,-1,-1,0.422818524937959,-1,1,-1,1,0.71289353627063,0.426277085898119
1,1,1,66,-1,1,1.2,-1,-1,-0.911071432239031,-1,-1,-1,-1,0.422818524937959,0.71289353627063
1,1,1,67,1,0,1.084,-1,1,0.631703620692959,-1,-1,-1,-1,-0.911071432239031,0.422818524937959
1,1,1,68,-1,0,0.961,1,-1,0.231395725164133,1,-1,-1,-1,0.631703620692959,-0.911071432239031
1,1,1,69,-1,1,1.112,-1,-1,-0.242840542965914,-1,1,1,-1,0.231395725164133,0.631703620692959
1,1,1,70,-1,0,1.022,-1,1,0.331812823970645,-1,-1,-1,1,-0.242840542965914,0.231395725164133
1,1,1,71,-1,0,1.141,-1,-1,-0.000513099280557158,1,-1,-1,-1,0.331812823970645,-0.242840542965914
1,1,1,72,1,1,1.703,-1,-1,0.433185107669934,-1,1,-1,-1,-0.000513099280557158,0.331812823970645
1,1,1,73,-1,0,0.783,1,1,2.01012862991734,-1,-1,-1,-1,0.433185107669934,-0.000513099280557158
1,1,1,74,-1,0,0.778,-1,-1,-1.0494194135189,1,-1,1,-1,2.01012862991734,0.433185107669934
1,1,1,75,1,1,0.96,-1,-1,-1.07464417243087,-1,1,-1,1,-1.0494194135189,2.01012862991734
1,1,1,76,1,1,0.843,1,1,-0.24694004505406,-1,-1,-1,-1,-1.07464417243087,-1.0494194135189
1,1,1,77,1,1,0.871,1,1,-0.758691735084816,1,-1,1,-1,-0.24694004505406,-1.07464417243087
1,1,1,78,-1,1,1.143,1,1,-0.630031515364375,1,1,1,1,-0.758691735084816,-0.24694004505406
1,1,1,79,1,0,0.661,-1,1,0.440081031323876,1,1,1,1,-0.630031515364375,-0.758691735084816
1,1,2,0,1,0,1.46,1,-1,-1.7163607532153,1,1,-1,1,0.440081031323876,-0.630031515364375
1,1,2,1,1,1,1.104,1,-1,0.827910111531846,-1,1,1,-1,-1.7163607532153,0.440081031323876
1,1,2,2,-1,1,1.022,1,1,-0.552052998814529,-1,-1,1,1,0.827910111531846,-1.7163607532153
1,1,2,3,1,1,1.554,-1,1,-0.933107598491932,1,-1,1,1,-0.552052998814529,0.827910111531846
1,1,2,4,1,1,1.528,1,1,1.13597811370376,1,1,-1,1,-0.933107598491932,-0.552052998814529
1,1,2,5,-1,0,1.236,1,1,1.05267290936132,1,1,1,-1,1.13597811370376,-0.933107598491932
1,1,2,6,1,0,1.701,-1,-1,0.00556975446908836,1,1,1,1,1.05267290936132,1.13597811370376
1,1,2,7,-1,0,1.142,1,-1,1.5822329898995,-1,1,-1,1,0.00556975446908836,1.05267290936132
1,1,2,8,-1,0,1.316,-1,-1,-0.384968405262834,-1,-1,1,-1,1.5822329898995,0.00556975446908836
1,1,2,9,1,1,1.463,-1,-1,0.315220945470903,-1,-1,-1,1,-0.384968405262834,1.5822329898995
1,1,2,10,-1,0,1.528,1,1,0.838044877149945,-1,-1,-1,-1,0.315220945470903,-0.384968405262834
1,1,2,11,-1,0,1.529,-1,-1,1.05267290936132,1,-1,1,-1,0.838044877149945,0.315220945470903
1,1,2,12,-1,0,1.261,-1,-1,1.05590308170421,-1,1,-1,1,1.05267290936132,0.838044877149945
1,1,2,13,1,1,0.987,-1,-1,0.104438061094799,-1,-1,-1,-1,1.05590308170421,1.05267290936132
1,1,2,14,-1,0,1.342,1,1,-1.10515700104096,-1,-1,-1,-1,0.104438061094799,1.05590308170421
1,1,2,15,-1,0,1.349,-1,-1,0.411815655055306,1,-1,1,-1,-1.10515700104096,0.104438061094799
1,1,2,16,-1,0,1.168,-1,-1,0.437502244207248,-1,1,-1,1,0.411815655055306,-1.10515700104096
1,1,2,17,1,1,1.079,-1,-1,-0.273820616739954,-1,-1,-1,-1,0.437502244207248,0.411815655055306
1,1,2,18,1,0,1.29,1,1,-0.665143564828916,-1,-1,-1,-1,-0.273820616739954,0.437502244207248
1,1,2,19,1,1,1.737,1,-1,0.216698662982614,1,-1,1,-1,-0.665143564828916,-0.273820616739954
1,1,2,20,-1,0,1.41,1,1,1.68563610433838,-1,1,1,1,0.216698662982614,-0.665143564828916
1,1,2,21,1,1,1.554,-1,-1,0.655860708982819,1,-1,1,1,1.68563610433838,0.216698662982614
1,1,2,22,1,1,1.263,1,1,1.13597811370376,-1,1,-1,1,0.655860708982819,1.68563610433838
1,1,2,23,-1,1,1.317,1,1,0.112262655838622,1,-1,1,-1,1.13597811370376,0.655860708982819
1,1,2,24,1,0,1.293,-1,1,0.318971282339406,1,1,1,1,0.112262655838622,1.13597811370376
1,1,2,25,-1,0,1.225,1,-1,0.228167467791089,1,1,-1,1,0.318971282339406,0.112262655838622
1,1,2,26,1,0,1.168,-1,-1,-0.0385674762781045,-1,1,1,-1,0.228167467791089,0.318971282339406
1,1,2,27,1,1,0.992,1,-1,-0.273820616739954,-1,-1,-1,1,-0.0385674762781045,0.228167467791089
1,1,2,28,1,1,1.349,1,1,-1.08020839691983,-1,-1,1,-1,-0.273820616739954,-0.0385674762781045
1,1,2,29,1,1,1.645,1,1,0.437502244207248,1,-1,1,1,-1.08020839691983,-0.273820616739954
1,1,2,30,1,1,1.404,1,1,1.4169516737427,1,1,1,1,0.437502244207248,-1.08020839691983
1,1,2,31,1,1,1.851,1,1,0.634806015029196,1,1,1,1,1.4169516737427,0.437502244207248
1,1,2,32,1,1,1.353,1,1,1.9994843736343,1,1,1,1,0.634806015029196,1.4169516737427
1,1,2,33,1,1,1.585,1,1,0.452120517654393,1,1,1,1,1.9994843736343,0.634806015029196
1,1,2,34,-1,0,1.291,1,1,1.23350079095683,1,1,1,1,0.452120517654393,1.9994843736343
1,1,2,35,1,0,1.377,-1,-1,0.220524558757157,1,1,1,1,1.23350079095683,0.452120517654393
1,1,2,36,-1,0,1.163,1,-1,0.538932745347006,-1,1,-1,1,0.220524558757157,1.23350079095683
1,1,2,37,-1,0,0.783,-1,-1,-0.295001765698642,-1,-1,1,-1,0.538932745347006,0.220524558757157
1,1,2,38,1,0,0.959,-1,-1,-2.24833055237529,-1,-1,-1,1,-0.295001765698642,0.538932745347006
1,1,2,39,-1,0,1.077,1,-1,-1.24724790792978,-1,-1,-1,-1,-2.24833055237529,-0.295001765698642
1,1,2,40,1,1,1.105,-1,-1,-0.674303712632661,-1,-1,1,-1,-1.24724790792978,-2.24833055237529
1,1,2,41,1,1,1.318,1,1,-0.547582814489258,-1,-1,-1,1,-0.674303712632661,-1.24724790792978
1,1,2,42,-1,1,1.92,1,1,0.322718772652139,1,-1,1,-1,-0.547582814489258,-0.674303712632661
1,1,2,43,1,0,1.048,-1,1,2.1801860369517,1,1,1,1,0.322718772652139,-0.547582814489258
1,1,2,44,-1,0,0.869,1,-1,-0.809071824728369,1,1,-1,1,2.1801860369517,0.322718772652139
1,1,2,45,-1,1,1.019,-1,-1,-1.7338104980783,-1,1,1,-1,-0.809071824728369,2.1801860369517
1,1,2,46,-1,0,1.021,-1,1,-0.947622018302929,-1,-1,-1,1,-1.7338104980783,-0.809071824728369
1,1,2,47,-1,0,1.259,-1,-1,-0.937940999024775,1,-1,-1,-1,-0.947622018302929,-1.7338104980783
1,1,2,48,1,1,1.139,-1,-1,0.096601046354109,-1,1,-1,-1,-0.937940999024775,-0.947622018302929
1,1,2,49,-1,0,1.138,1,1,-0.397955659353567,-1,-1,-1,-1,0.096601046354109,-0.937940999024775
1,1,2,50,1,1,0.929,-1,-1,-0.402292346720646,1,-1,1,-1,-0.397955659353567,0.096601046354109
1,1,2,51,1,1,1.11,1,1,-1.40416741583361,-1,1,-1,1,-0.402292346720646,-0.397955659353567
1,1,2,52,-1,1,1.375,1,1,-0.52529240078197,1,-1,1,-1,-1.40416741583361,-0.402292346720646
1,1,2,53,-1,0,0.838,-1,1,0.531756409417908,1,1,1,1,-0.52529240078197,-1.40416741583361
1,1,2,54,-1,1,1.071,-1,-1,-1.91315870587237,1,1,-1,1,0.531756409417908,-0.52529240078197
1,1,2,55,-1,0,1.254,-1,1,-0.701886567890759,-1,1,-1,-1,-1.91315870587237,0.531756409417908
1,1,2,56,1,0,1.203,-1,-1,0.0769539123900616,1,-1,-1,-1,-0.701886567890759,-1.91315870587237
1,1,2,57,1,1,1.407,1,-1,-0.12804356711348,-1,1,-1,-1,0.0769539123900616,-0.701886567890759
1,1,2,58,1,1,1.496,1,1,0.645344585198922,-1,-1,1,-1,-0.12804356711348,0.0769539123900616
1,1,2,59,-1,0,1.197,1,1,0.948175500805198,1,-1,1,1,0.645344585198922,-0.12804356711348
1,1,2,60,-1,1,1.283,-1,-1,-0.152730209794034,1,1,1,1,0.948175500805198,0.645344585198922
1,1,2,61,1,0,1.025,-1,1,0.189834059004378,-1,1,-1,1,-0.152730209794034,0.948175500805198
1,1,2,62,1,1,0.898,1,-1,-0.918635722229421,1,-1,-1,-1,0.189834059004378,-0.152730209794034
1,1,2,63,-1,0,1.227,1,1,-1.57173343313121,-1,1,1,-1,-0.918635722229421,0.189834059004378
1,1,2,64,1,1,1.289,-1,-1,-0.0305131217186763,1,-1,1,1,-1.57173343313121,-0.918635722229421
1,1,2,65,-1,0,1.05,1,1,0.212869800247111,-1,1,-1,1,-0.0305131217186763,-1.57173343313121
1,1,2,66,-1,0,0.84,-1,-1,-0.799658441037988,1,-1,1,-1,0.212869800247111,-0.0305131217186763
1,1,2,67,1,1,1.076,-1,-1,-1.90138916930979,-1,1,-1,1,-0.799658441037988,0.212869800247111
1,1,2,68,-1,0,1.019,1,1,-0.678890167444585,-1,-1,-1,-1,-1.90138916930979,-0.799658441037988
1,1,2,69,-1,0,0.839,-1,-1,-0.947622018302929,1,-1,1,-1,-0.678890167444585,-1.90138916930979
1,1,2,70,1,0,0.99,-1,-1,-1.90727043057697,-1,1,-1,1,-0.947622018302929,-0.678890167444585
1,1,2,71,1,0,0.984,1,-1,-1.09017271563991,-1,-1,-1,-1,-1.90727043057697,-0.947622018302929
1,1,2,72,-1,0,1.976,1,-1,-1.12018690077537,-1,-1,1,-1,-1.09017271563991,-1.90727043057697
1,1,2,73,-1,0,1.464,-1,-1,2.32213103984518,-1,-1,1,1,-1.12018690077537,-1.09017271563991
1,1,2,74,1,0,1.172,-1,-1,0.841418514623188,-1,-1,-1,1,2.32213103984518,-1.12018690077537
1,1,2,75,-1,0,1.431,1,-1,-0.256940879785978,-1,-1,-1,-1,0.841418514623188,2.32213103984518
1,1,2,76,-1,0,1.826,-1,-1,0.728853015687423,-1,-1,1,-1,-0.256940879785978,0.841418514623188
1,1,2,77,-1,0,1.407,-1,-1,1.93234547873734,-1,-1,-1,1,0.728853015687423,-0.256940879785978
1,1,2,78,-1,0,1.29,-1,-1,0.645344585198922,-1,-1,-1,-1,1.93234547873734,0.728853015687423
1,1,2,79,1,1,1.138,-1,-1,0.216698662982614,-1,-1,-1,-1,0.645344585198922,1.93234547873734
1,2,3,0,1,0,1.003,1,1,-0.402292346720646,-1,-1,-1,-1,0.216698662982614,0.645344585198922
1,2,3,1,1,0,1.485,1,-1,-1.50103484080994,1,-1,1,-1,-0.402292346720646,0.216698662982614
1,2,3,2,-1,0,1.48,1,-1,0.710363712973238,-1,1,1,1,-1.50103484080994,-0.402292346720646
1,2,3,3,1,1,1.262,-1,-1,0.691357638918189,-1,-1,1,1,0.710363712973238,-1.50103484080994
1,2,3,4,1,1,1.942,1,1,-0.206594729546042,-1,-1,-1,1,0.691357638918189,0.710363712973238
1,2,3,5,-1,0,1.335,1,1,2.22233380024155,1,-1,1,-1,-0.206594729546042,0.691357638918189
1,2,3,6,1,1,1.947,-1,-1,0.110297822734714,1,1,1,1,2.22233380024155,-0.206594729546042
1,2,3,7,-1,0,2.129,1,1,2.23682415436991,-1,1,-1,1,0.110297822734714,2.22233380024155
1,2,3,8,1,1,1.279,-1,-1,2.74040915776247,1,-1,1,-1,2.23682415436991,0.110297822734714
1,2,3,9,-1,0,1.569,1,1,-0.131190199964255,-1,1,-1,1,2.74040915776247,2.23682415436991
1,2,3,10,1,1,1.917,-1,-1,1.0204385367653,1,-1,1,-1,-0.131190199964255,2.74040915776247
1,2,3,11,1,1,1.367,1,1,2.14931780576424,-1,1,-1,1,1.0204385367653,-0.131190199964255
1,2,3,12,-1,0,1.017,1,1,0.243782568346318,1,-1,1,-1,2.14931780576424,1.0204385367653
1,2,3,13,-1,1,1.307,-1,-1,-1.42292058153516,1,1,1,1,0.243782568346318,2.14931780576424
1,2,3,14,-1,0,1.164,-1,1,-0.00915273376458026,-1,1,-1,1,-1.42292058153516,0.243782568346318
1,2,3,15,1,1,1.625,-1,-1,-0.662126188203287,1,-1,-1,-1,-0.00915273376458026,-1.42292058153516
1,2,3,16,1,1,1.715,1,1,1.2180646461511,-1,1,-1,-1,-0.662126188203287,-0.00915273376458026
1,2,3,17,1,1,1.429,1,1,1.52183674873664,1,-1,1,-1,1.2180646461511,-0.662126188203287
1,2,3,18,-1,0,1.478,1,1,0.493743663465072,1,1,1,1,1.52183674873664,1.2180646461511
1,2,3,19,1,1,1.282,-1,-1,0.683737224483751,1,1,1,1,0.493743663465072,1.52183674873664
1,2,3,20,1,0,1.451,1,1,-0.117987627079084,-1,1,-1,1,0.683737224483751,0.493743663465072
1,2,3,21,-1,0,1.395,1,-1,0.579840132268925,1,-1,1,-1,-0.117987627079084,0.683737224483751
1,2,3,22,-1,0,1.544,-1,-1,0.358043019394826,-1,1,1,1,0.579840132268925,-0.117987627079084
1,2,3,23,1,0,1.25,-1,-1,0.929924293776347,-1,-1,-1,1,0.358043019394826,0.579840132268925
1,2,3,24,1,1,1.368,1,-1,-0.260435543074858,-1,-1,-1,-1,0.929924293776347,0.358043019394826
1,2,3,25,-1,0,1.338,1,1,0.247903442837471,-1,-1,1,-1,-0.260435543074858,0.929924293776347
1,2,3,26,1,1,1.167,-1,-1,0.122947200920285,1,-1,1,1,0.247903442837471,-0.260435543074858
1,2,3,27,-1,0,1.219,1,1,-0.647620914774927,-1,1,-1,1,0.122947200920285,0.247903442837471
1,2,3,28,1,1,1.22,-1,-1,-0.40195303587222,1,-1,1,-1,-0.647620914774927,0.122947200920285
1,2,3,29,-1,0,1.334,1,1,-0.397332046998664,-1,1,-1,1,-0.40195303587222,-0.647620914774927
1,2,3,30,-1,0,1.133,-1,-1,0.106075045755153,1,-1,1,-1,-0.397332046998664,-0.40195303587222
1,2,3,31,1,0,1.539,-1,-1,-0.814241792391041,-1,1,-1,1,0.106075045755153,-0.397332046998664
1,2,3,32,-1,0,1.335,1,-1,0.911645667255948,-1,-1,-1,-1,-0.814241792391041,0.106075045755153
1,2,3,33,-1,0,1.539,-1,-1,0.110297822734714,-1,-1,1,-1,0.911645667255948,-0.814241792391041
1,2,3,34,1,1,1.079,-1,-1,0.911645667255948,-1,-1,-1,1,0.110297822734714,0.911645667255948
1,2,3,35,1,1,1.192,1,1,-1.0894374852306,-1,-1,-1,-1,0.911645667255948,0.110297822734714
1,2,3,36,1,1,1.135,1,1,-0.528173975410657,1,-1,1,-1,-1.0894374852306,0.911645667255948
1,2,3,37,-1,0,1.284,1,1,-0.804302996842081,1,1,1,1,-0.528173975410657,-1.0894374852306
1,2,3,38,-1,0,1.105,-1,-1,-0.109203064714811,1,1,1,1,-0.804302996842081,-0.528173975410657
1,2,3,39,-1,0,1.22,-1,-1,-0.95525744104391,-1,1,-1,1,-0.109203064714811,-0.804302996842081
1,2,3,40,1,1,1.191,-1,-1,-0.397332046998664,-1,-1,-1,-1,-0.95525744104391,-0.109203064714811
1,2,3,41,1,0,1.074,1,1,-0.53290355656577,-1,-1,-1,-1,-0.397332046998664,-0.95525744104391
1,2,3,42,-1,0,1.133,1,-1,-1.11561168749,1,-1,1,-1,-0.53290355656577,-0.397332046998664
1,2,3,43,1,1,1.193,-1,-1,-0.814241792391041,-1,1,1,1,-1.11561168749,-0.53290355656577
1,2,3,44,1,1,1.076,1,1,-0.523448360361798,-1,-1,-1,1,-0.814241792391041,-1.11561168749
1,2,3,45,-1,0,0.989,1,1,-1.10512741355326,1,-1,1,-1,-0.523448360361798,-0.814241792391041
1,2,3,46,1,0,2.094,-1,-1,-1.58024712758828,1,1,1,1,-1.10512741355326,-0.523448360361798
1,2,3,47,-1,1,1.481,1,-1,2.64699695659458,-1,1,-1,1,-1.58024712758828,-1.10512741355326
1,2,3,48,-1,0,1.631,-1,1,0.695163985307775,-1,-1,1,-1,2.64699695659458,-1.58024712758828
1,2,3,49,-1,1,1.482,-1,-1,1.23883357241965,1,-1,-1,1,0.695163985307775,2.64699695659458
1,2,3,50,-1,0,1.337,-1,1,0.698967762445467,-1,1,-1,-1,1.23883357241965,0.695163985307775
1,2,3,51,-1,0,1.338,-1,-1,0.118733895590906,1,-1,-1,-1,0.698967762445467,1.23883357241965
1,2,3,52,1,1,1.017,-1,-1,0.122947200920285,-1,1,-1,-1,0.118733895590906,0.698967762445467
1,2,3,53,-1,0,1.161,1,1,-1.42292058153516,-1,-1,-1,-1,0.122947200920285,0.118733895590906
1,2,3,54,1,1,1.161,-1,-1,-0.676668894636828,1,-1,1,-1,-1.42292058153516,0.122947200920285
1,2,3,55,-1,1,1.377,1,1,-0.676668894636828,-1,1,-1,1,-0.676668894636828,-1.42292058153516
1,2,3,56,1,1,1.426,-1,1,0.284856333384529,1,-1,1,-1,-0.676668894636828,-0.676668894636828
1,2,3,57,1,1,1.306,1,1,0.481900656061328,1,1,-1,1,0.284856333384529,-0.676668894636828
1,2,3,58,1,1,0.96,1,1,-0.0134660103743377,1,1,1,-1,0.481900656061328,0.284856333384529
1,2,3,59,-1,0,0.988,1,1,-1.74795942616735,1,1,1,1,-0.0134660103743377,0.481900656061328
1,2,3,60,1,1,1.161,-1,-1,-1.58594798352772,1,1,1,1,-1.74795942616735,-0.0134660103743377
1,2,3,61,-1,0,1.077,1,1,-0.676668894636828,-1,1,-1,1,-1.58594798352772,-1.74795942616735
1,2,3,62,-1,1,1.02,-1,-1,-1.09989258213592,1,-1,1,-1,-0.676668894636828,-1.58594798352772
1,2,3,63,-1,1,1.364,-1,1,-1.40632176065191,-1,1,-1,1,-1.09989258213592,-0.676668894636828
1,2,3,64,-1,1,1.25,-1,1,0.231401833343235,1,-1,-1,-1,-1.40632176065191,-1.09989258213592
1,2,3,65,-1,0,1.016,-1,1,-0.260435543074858,1,1,-1,-1,0.231401833343235,-1.40632176065191
1,2,3,66,-1,0,1.368,-1,-1,-1.42846440452583,1,1,-1,-1,-0.260435543074858,0.231401833343235
1,2,3,67,1,1,1.335,-1,-1,0.247903442837471,-1,1,-1,-1,-1.42846440452583,-0.260435543074858
1,2,3,68,1,0,1.39,1,1,0.110297822734714,-1,-1,-1,-1,0.247903442837471,-1.42846440452583
1,2,3,69,-1,0,1.598,1,-1,0.337808543020899,1,-1,1,-1,0.110297822734714,0.247903442837471
1,2,3,70,1,0,1.624,-1,-1,1.12364544597621,-1,1,1,1,0.337808543020899,0.110297822734714
1,2,3,71,1,1,1.306,1,-1,1.21459570444997,-1,-1,-1,1,1.12364544597621,0.337808543020899
1,2,3,72,-1,1,1.276,1,1,-0.0134660103743377,-1,-1,1,-1,1.21459570444997,1.12364544597621
1,2,3,73,1,1,1.541,-1,1,-0.144423776962941,1,-1,1,1,-0.0134660103743377,1.21459570444997
1,2,3,74,-1,0,1.047,1,1,0.918964234019045,1,1,-1,1,-0.144423776962941,-0.0134660103743377
1,2,3,75,1,1,1.216,-1,-1,-1.25909231093331,1,1,1,-1,0.918964234019045,-0.144423776962941
1,2,3,76,-1,0,1.303,1,1,-0.415838781581007,-1,1,-1,1,-1.25909231093331,0.918964234019045
1,2,3,77,-1,1,1.336,-1,-1,-0.0264256840405259,1,-1,1,-1,-0.415838781581007,-1.25909231093331
1,2,3,78,1,1,1.103,-1,1,0.114517437769405,-1,1,-1,1,-0.0264256840405259,-0.415838781581007
1,2,3,79,1,1,1.104,1,1,-0.965466312704647,1,-1,-1,-1,0.114517437769405,-0.0264256840405259
1,2,4,0,1,1,0.965,1,1,-0.960359565082372,1,1,1,-1,-0.965466312704647,0.114517437769405
1,2,4,1,1,1,1.124,1,1,-1.76150741172609,1,1,1,1,-0.960359565082372,-0.965466312704647
1,2,4,2,-1,0,0.859,1,1,-1.0203386775029,1,1,1,1,-1.76150741172609,-0.960359565082372
1,2,4,3,1,1,1.067,-1,-1,-2.32694971645246,1,1,1,1,-1.0203386775029,-1.76150741172609
1,2,4,4,1,1,1.363,1,1,-1.27323826953504,-1,1,-1,1,-2.32694971645246,-1.0203386775029
1,2,4,5,1,1,1.034,1,1,-0.0834627801163614,1,-1,1,-1,-1.27323826953504,-2.32694971645246
1,2,4,6,-1,1,1.958,1,1,-1.42590389078167,1,1,1,1,-0.0834627801163614,-1.27323826953504
1,2,4,7,-1,0,1.306,-1,1,1.67680414251996,1,1,1,1,-1.42590389078167,-0.0834627801163614
1,2,4,8,1,1,1.095,-1,-1,-0.29105447038477,1,1,-1,1,1.67680414251996,-1.42590389078167
1,2,4,9,-1,0,1.303,1,1,-1.14736188264774,-1,1,-1,-1,-0.29105447038477,1.67680414251996
1,2,4,10,1,1,1.154,-1,-1,-0.302229920159116,1,-1,1,-1,-1.14736188264774,-0.29105447038477
1,2,4,11,1,1,1.395,1,1,-0.892338583651268,-1,1,-1,1,-0.302229920159116,-1.14736188264774
1,2,4,12,-1,1,1.475,1,1,0.0293070302086642,1,-1,1,-1,-0.892338583651268,-0.302229920159116
1,2,4,13,1,1,1.396,-1,1,0.300287663368429,1,1,1,1,0.0293070302086642,-0.892338583651268
1,2,4,14,1,1,1.184,1,1,0.0327892632026516,1,1,-1,1,0.300287663368429,0.0293070302086642
1,2,4,15,-1,0,1.247,1,1,-0.767623716424689,1,1,1,-1,0.0327892632026516,0.300287663368429
1,2,4,16,-1,0,1.474,-1,-1,-0.515699168957303,1,1,1,1,-0.767623716424689,0.0327892632026516
1,2,4,17,-1,1,1.07,-1,-1,0.296991999671294,-1,1,-1,1,-0.515699168957303,-0.767623716424689
1,2,4,18,1,1,1.299,-1,1,-1.25959449098349,-1,-1,-1,-1,0.296991999671294,-0.515699168957303
1,2,4,19,-1,1,1.276,1,1,-0.317170611206526,1,-1,-1,-1,-1.25959449098349,0.296991999671294
1,2,4,20,1,1,0.947,-1,1,-0.403982618173688,1,1,1,-1,-0.317170611206526,-1.25959449098349
1,2,4,21,-1,1,1.364,1,1,-1.85300614714802,1,1,-1,1,-0.403982618173688,-0.317170611206526
1,2,4,22,1,1,1.659,-1,1,-0.0798988225417478,1,1,1,-1,-1.85300614714802,-0.403982618173688
1,2,4,23,1,1,1.598,1,1,0.871550828811374,1,1,-1,1,-0.0798988225417478,-1.85300614714802
1,2,4,24,1,1,1.712,1,1,0.689505094277213,1,1,1,-1,0.871550828811374,-0.0798988225417478
1,2,4,25,1,0,1.305,1,1,1.02436743470417,1,1,1,1,0.689505094277213,0.871550828811374
1,2,4,26,1,1,1.241,1,-1,-0.294776765423276,1,1,1,1,1.02436743470417,0.689505094277213
1,2,4,27,1,1,1.43,1,1,-0.539137104755885,-1,1,1,1,-0.294776765423276,1.02436743470417
1,2,4,28,1,1,1.506,1,1,0.149724489198943,1,-1,1,1,-0.539137104755885,-0.294776765423276
1,2,4,29,-1,0,1.567,1,1,0.401360165675564,1,1,1,1,0.149724489198943,-0.539137104755885
1,2,4,30,1,1,1.126,-1,-1,0.594308916349019,1,1,1,1,0.401360165675564,0.149724489198943
1,2,4,31,1,1,1.507,1,1,-1.01169964245397,-1,1,-1,1,0.594308916349019,0.401360165675564
1,2,4,32,-1,0,1.154,1,1,0.404585825226573,1,-1,1,-1,-1.01169964245397,0.594308916349019
1,2,4,33,1,1,1.486,-1,-1,-0.892338583651268,1,1,1,1,0.404585825226573,-1.01169964245397
1,2,4,34,-1,0,1.657,1,1,0.336393209598767,-1,1,-1,1,-0.892338583651268,0.404585825226573
1,2,4,35,1,1,1.394,-1,-1,0.865688999469501,1,-1,1,-1,0.336393209598767,-0.892338583651268
1,2,4,36,-1,0,1.364,1,1,0.0258223000950688,-1,1,-1,1,0.865688999469501,0.336393209598767
1,2,4,37,-1,0,1.627,-1,-1,-0.0798988225417478,1,-1,1,-1,0.0258223000950688,0.865688999469501
1,2,4,38,-1,0,1.628,-1,-1,0.776902316420661,-1,1,-1,1,-0.0798988225417478,0.0258223000950688
1,2,4,39,-1,0,1.51,-1,-1,0.779888157334977,-1,-1,-1,-1,0.776902316420661,-0.0798988225417478
1,2,4,40,-1,0,1.48,-1,-1,0.414249976774698,-1,-1,-1,-1,0.779888157334977,0.776902316420661
1,2,4,41,-1,0,1.272,-1,-1,0.316732538403129,-1,-1,-1,-1,0.414249976774698,0.779888157334977
1,2,4,42,-1,1,1.779,-1,-1,-0.419239949185129,-1,-1,-1,-1,0.316732538403129,0.414249976774698
1,2,4,43,-1,0,1.093,-1,1,1.21091772501376,-1,-1,-1,-1,-0.419239949185129,0.316732538403129
1,2,4,44,-1,0,1.398,-1,-1,-1.15624571681334,1,-1,-1,-1,1.21091772501376,-0.419239949185129
1,2,4,45,-1,0,1.632,-1,-1,0.0397462521291475,-1,1,-1,-1,-1.15624571681334,1.21091772501376
1,2,4,46,1,1,1.39,-1,-1,0.791813208559094,-1,-1,-1,-1,0.0397462521291475,-1.15624571681334
1,2,4,47,1,1,0.89,1,1,0.011858336649584,-1,-1,-1,-1,0.791813208559094,0.0397462521291475
1,2,4,48,-1,1,1.744,1,1,-2.15466965692738,1,-1,1,-1,0.011858336649584,0.791813208559094
1,2,4,49,1,0,1.337,-1,1,1.1143599312903,1,1,1,1,-2.15466965692738,0.011858336649584
1,2,4,50,1,1,1.122,1,-1,-0.17705519483647,1,1,-1,1,1.1143599312903,-2.15466965692738
1,2,4,51,1,0,1.548,1,1,-1.02899309819673,-1,1,1,-1,-0.17705519483647,1.1143599312903
1,2,4,52,1,1,1.421,1,-1,0.535027498815475,1,-1,1,1,-1.02899309819673,-0.17705519483647
1,2,4,53,-1,1,1.361,1,1,0.119043851741743,-1,1,1,1,0.535027498815475,-1.02899309819673
1,2,4,54,-1,1,1.331,-1,1,-0.0905985463547799,1,-1,1,1,0.119043851741743,0.535027498815475
1,2,4,55,-1,0,1.273,-1,1,-0.198911855079326,1,1,-1,1,-0.0905985463547799,0.119043851741743
1,2,4,56,-1,0,1.514,-1,-1,-0.415421123106346,1,1,-1,-1,-0.198911855079326,-0.0905985463547799
1,2,4,57,-1,1,1.271,-1,-1,0.427105687804642,-1,1,-1,-1,-0.415421123106346,-0.198911855079326
1,2,4,58,-1,1,1.421,-1,1,-0.423061778666566,-1,-1,-1,-1,0.427105687804642,-0.415421123106346
1,2,4,59,1,1,1.246,-1,1,0.119043851741743,1,-1,-1,-1,-0.423061778666566,0.427105687804642
1,2,4,60,1,1,1.54,1,1,-0.519597649659906,1,1,-1,-1,0.119043851741743,-0.423061778666566
1,2,4,61,-1,0,1.187,1,1,0.509848914324451,1,1,1,-1,-0.519597649659906,0.119043851741743
1,2,4,62,-1,1,1.215,-1,-1,-0.755326478478438,1,1,1,1,0.509848914324451,-0.519597649659906
1,2,4,63,1,1,1.546,-1,1,-0.642028452067111,-1,1,-1,1,-0.755326478478438,0.509848914324451
1,2,4,64,1,0,0.68,1,1,0.528745072684892,1,-1,-1,-1,-0.642028452067111,-0.755326478478438
1,2,4,65,-1,1,1.481,1,-1,-3.46248854322745,1,1,1,-1,0.528745072684892,-0.642028452067111
1,2,4,66,-1,1,1.626,-1,1,0.320014845812733,-1,1,1,1,-3.46248854322745,0.528745072684892
1,2,4,67,1,1,1.818,-1,1,0.7739146397602,1,-1,-1,1,0.320014845812733,-3.46248854322745
1,2,4,68,-1,0,1.453,1,1,1.31629787981635,1,1,-1,-1,0.7739146397602,0.320014845812733
1,2,4,69,1,1,1.66,-1,-1,0.227261678070284,1,1,1,-1,1.31629787981635,0.7739146397602
1,2,4,70,1,1,2.335,1,1,0.874479094001016,-1,1,-1,1,0.227261678070284,1.31629787981635
1,2,4,71,-1,1,1.479,1,1,2.53249770552359,1,-1,1,-1,0.874479094001016,0.227261678070284
1,2,4,72,-1,0,1.867,-1,1,0.313448012468578,1,1,1,1,2.53249770552359,0.874479094001016
1,2,4,73,-1,1,1.664,-1,-1,1.44553933232829,1,1,-1,1,0.313448012468578,2.53249770552359
1,2,4,74,1,0,2.157,-1,1,0.886174541126946,-1,1,-1,-1,1.44553933232829,0.313448012468578
1,2,4,75,-1,1,1.567,1,-1,2.14717432109215,1,-1,-1,-1,0.886174541126946,1.44553933232829
1,2,4,76,1,1,1.597,-1,1,0.594308916349019,-1,1,1,-1,2.14717432109215,0.886174541126946
1,2,4,77,1,1,1.362,1,1,0.686463181229422,1,-1,-1,1,0.594308916349019,2.14717432109215
1,2,4,78,1,1,1.688,1,1,-0.0870293534398875,1,1,1,-1,0.686463181229422,0.594308916349019
1,2,4,79,-1,0,1.928,1,1,0.955762211434542,1,1,1,1,-0.0870293534398875,0.686463181229422
1,2,5,0,1,1,1.121,-1,-1,1.60177245217926,1,1,1,1,0.955762211434542,-0.0870293534398875
1,2,5,1,-1,0,1.428,1,1,-3.10065485915528,-1,1,-1,1,1.60177245217926,0.955762211434542
1,2,5,2,-1,0,1.19,-1,-1,-1.2037482245003,1,-1,1,-1,-3.10065485915528,1.60177245217926
1,2,5,3,1,1,1.636,-1,-1,-2.63255076870301,-1,1,-1,1,-1.2037482245003,-3.10065485915528
1,2,5,4,1,0,1.548,1,1,-0.138116275526393,-1,-1,-1,-1,-2.63255076870301,-1.2037482245003
1,2,5,5,1,1,1.337,1,-1,-0.571412017468894,1,-1,1,-1,-0.138116275526393,-2.63255076870301
1,2,5,6,1,1,1.734,1,1,-1.71976916241346,-1,1,1,1,-0.571412017468894,-0.138116275526393
1,2,5,7,-1,0,1.548,1,1,0.31779762166097,1,-1,1,1,-1.71976916241346,-0.571412017468894
1,2,5,8,-1,0,1.608,-1,-1,-0.571412017468894,1,1,1,1,0.31779762166097,-1.71976916241346
1,2,5,9,1,1,1.811,-1,-1,-0.273402059004622,-1,1,-1,1,-0.571412017468894,0.31779762166097
1,2,5,10,-1,0,1.516,1,1,0.65828968112256,-1,-1,-1,-1,-0.273402059004622,-0.571412017468894
1,2,5,11,-1,0,1.759,-1,-1,-0.735109197596959,1,-1,1,-1,0.65828968112256,-0.273402059004622
1,2,5,12,-1,0,1.994,-1,-1,0.429976999962687,-1,1,-1,1,-0.735109197596959,0.65828968112256
1,2,5,13,-1,0,1.935,-1,-1,1.41267948348137,-1,-1,-1,-1,0.429976999962687,-0.735109197596959
1,2,5,14,-1,0,1.486,-1,-1,1.17730096769108,-1,-1,-1,-1,1.41267948348137,0.429976999962687
1,2,5,15,1,1,1.966,-1,-1,-0.891744343035122,-1,-1,-1,-1,1.17730096769108,1.41267948348137
1,2,5,16,1,1,2.052,1,1,1.30185536816701,-1,-1,-1,-1,-0.891744343035122,1.17730096769108
1,2,5,17,-1,1,1.635,1,1,1.63737585351566,1,-1,1,-1,1.30185536816701,-0.891744343035122
1,2,5,18,1,1,1.579,-1,1,-0.142907909764221,1,1,1,1,1.63737585351566,1.30185536816701
1,2,5,19,-1,0,1.469,1,1,-0.416025894489615,1,1,-1,1,-0.142907909764221,1.63737585351566
1,2,5,20,1,0,1.839,-1,-1,-0.981913999999211,1,1,1,-1,-0.416025894489615,-0.142907909764221
1,2,5,21,1,1,1.727,1,-1,0.77852661037781,-1,1,-1,1,-0.981913999999211,-0.416025894489615
1,2,5,22,-1,0,1.933,1,1,0.28609747854434,-1,-1,1,-1,0.77852661037781,-0.981913999999211
1,2,5,23,1,0,2.088,-1,-1,1.1691968123134,1,-1,1,1,0.28609747854434,0.77852661037781
1,2,5,24,-1,0,1.928,1,-1,1.77367002888254,-1,1,-1,1,1.1691968123134,0.28609747854434
1,2,5,25,-1,0,1.932,-1,-1,1.14889968221077,-1,-1,1,-1,1.77367002888254,1.1691968123134
1,2,5,26,-1,0,1.459,-1,-1,1.1651415896864,-1,-1,-1,1,1.14889968221077,1.77367002888254
1,2,5,27,-1,0,1.877,-1,-1,-1.03544369960248,-1,-1,-1,-1,1.1651415896864,1.14889968221077
1,2,5,28,-1,1,1.755,-1,-1,0.938809521022737,-1,-1,-1,-1,-1.03544369960248,1.1651415896864
1,2,5,29,-1,1,1.521,-1,1,0.412135859526497,-1,-1,-1,-1,0.938809521022737,-1.03544369960248
1,2,5,30,-1,1,1.987,-1,1,-0.709305033512915,1,-1,-1,-1,0.412135859526497,0.938809521022737
1,2,5,31,-1,0,1.795,-1,1,1.3851200364085,1,1,-1,-1,-0.709305033512915,0.412135859526497
1,2,5,32,1,1,2.051,-1,-1,0.5887454195084,1,1,-1,-1,1.3851200364085,-0.709305033512915
1,2,5,33,1,1,1.999,1,1,1.63355585950786,-1,1,-1,-1,0.5887454195084,1.3851200364085
1,2,5,34,1,1,1.72,1,1,1.4323056333631,1,-1,1,-1,1.63355585950786,0.5887454195084
1,2,5,35,-1,0,1.486,1,1,0.254268584855817,1,1,1,1,1.4323056333631,1.63355585950786
1,2,5,36,-1,1,1.872,-1,-1,-0.891744343035122,1,1,1,1,0.254268584855817,1.4323056333631
1,2,5,37,1,1,1.814,-1,1,0.917906020893942,-1,1,-1,1,-0.891744343035122,0.254268584855817
1,2,5,38,-1,1,1.762,1,1,0.671260802790328,1,-1,-1,-1,0.917906020893942,-0.891744343035122
1,2,5,39,1,1,1.936,-1,1,0.443331250655436,1,1,1,-1,0.671260802790328,0.917906020893942
1,2,5,40,-1,0,1.695,1,1,1.18134990477512,1,1,-1,1,0.443331250655436,0.671260802790328
1,2,5,41,1,1,1.342,-1,-1,0.139526893040201,1,1,1,-1,1.18134990477512,0.443331250655436
1,2,5,42,1,1,1.701,1,1,-1.69051672997176,-1,1,-1,1,0.139526893040201,1.18134990477512
1,2,5,43,-1,1,1.781,1,1,0.167218503308799,1,-1,1,-1,-1.69051672997176,0.139526893040201
1,2,5,44,1,1,1.551,-1,1,0.527383782895006,1,1,1,1,0.167218503308799,-1.69051672997176
1,2,5,45,1,1,1.739,1,1,-0.55623927787581,1,1,-1,1,0.527383782895006,0.167218503308799
1,2,5,46,1,1,1.456,1,1,0.340362329308947,1,1,1,-1,-0.55623927787581,0.527383782895006
1,2,5,47,1,1,1.483,1,1,-1.05157417024117,1,1,1,1,0.340362329308947,-0.55623927787581
1,2,5,48,-1,1,1.606,1,1,-0.907581433406757,1,1,1,1,-1.05157417024117,0.340362329308947
1,2,5,49,-1,0,1.842,-1,1,-0.283155286837052,1,1,1,1,-0.907581433406757,-1.05157417024117
1,2,5,50,1,1,1.55,-1,-1,0.791300398946547,1,1,-1,1,-0.283155286837052,-0.907581433406757
1,2,5,51,-1,1,1.843,1,1,-0.561293594433998,-1,1,-1,-1,0.791300398946547,-0.283155286837052
1,2,5,52,1,1,1.793,-1,1,0.795553705727655,1,-1,1,-1,-0.561293594433998,0.791300398946547
1,2,5,53,-1,0,1.756,1,1,0.580008832704084,1,1,-1,1,0.795553705727655,-0.561293594433998
1,2,5,54,1,1,1.782,-1,-1,0.416599953951864,1,1,1,-1,0.580008832704084,0.795553705727655
1,2,5,55,1,1,1.757,1,1,0.531782726345802,-1,1,-1,1,0.416599953951864,0.580008832704084
1,2,5,56,-1,1,1.637,1,1,0.421061506905744,1,-1,1,-1,0.531782726345802,0.416599953951864
1,2,5,57,1,1,1.756,-1,1,-0.13332756926567,1,1,1,1,0.421061506905744,0.531782726345802
1,2,5,58,1,0,1.965,1,1,0.416599953951864,1,1,-1,1,-0.13332756926567,0.421061506905744
1,2,5,59,-1,0,1.575,1,-1,1.29786823119379,1,1,1,-1,0.416599953951864,-0.13332756926567
1,2,5,60,-1,0,1.698,-1,-1,-0.435903438569199,-1,1,1,1,1.29786823119379,0.416599953951864
1,2,5,61,1,0,1.785,-1,-1,0.153384929457483,-1,-1,-1,1,-0.435903438569199,1.29786823119379
1,2,5,62,1,1,1.695,1,-1,0.544964760659675,-1,-1,-1,-1,0.153384929457483,-0.435903438569199
1,2,5,63,1,1,1.815,1,1,0.139526893040201,-1,-1,1,-1,0.544964760659675,0.153384929457483
1,2,5,64,1,1,1.607,1,1,0.675579743407674,1,-1,1,1,0.139526893040201,0.544964760659675
1,2,5,65,1,1,1.372,1,1,-0.278277155617094,1,1,1,1,0.675579743407674,0.139526893040201
1,2,5,66,1,1,1.726,1,1,-1.51725873243399,1,1,1,1,-0.278277155617094,0.675579743407674
1,2,5,67,1,1,1.486,1,1,0.281558400773758,1,1,1,1,-1.51725873243399,-0.278277155617094
1,2,5,68,-1,0,1.459,1,1,-0.891744343035122,1,1,1,1,0.281558400773758,-1.51725873243399
1,2,5,69,-1,1,1.664,-1,-1,-1.03544369960248,1,1,1,1,-0.891744343035122,0.281558400773758
1,2,5,70,-1,0,1.281,-1,1,-0.00512636194132487,-1,1,-1,1,-1.03544369960248,-0.891744343035122
1,2,5,71,1,1,1.37,-1,-1,-2.05508095300876,1,-1,-1,-1,-0.00512636194132487,-1.03544369960248
1,2,5,72,-1,0,1.815,1,1,-1.52869085342827,-1,1,-1,-1,-2.05508095300876,-0.00512636194132487
1,2,5,73,1,1,1.666,-1,-1,0.675579743407674,1,-1,1,-1,-1.52869085342827,-2.05508095300876
1,2,5,74,-1,0,1.49,1,1,0.00428711372727789,-1,1,-1,1,0.675579743407674,-1.52869085342827
1,2,5,75,-1,0,1.634,-1,-1,-0.870677885317345,1,-1,1,-1,0.00428711372727789,0.675579743407674
1,2,5,76,1,0,1.61,-1,-1,-0.147702475561877,-1,1,-1,1,-0.870677885317345,0.00428711372727789
1,2,5,77,-1,0,1.694,1,-1,-0.263660954516313,-1,-1,-1,-1,-0.147702475561877,-0.870677885317345
1,2,5,78,1,1,1.489,-1,-1,0.134902096475276,-1,-1,1,-1,-0.263660954516313,-0.147702475561877
1,2,5,79,-1,1,1.457,1,1,-0.87593919303549,-1,-1,-1,1,0.134902096475276,-0.263660954516313
1,2,6,0,-1,0,1.066,-1,1,-1.04619365677761,1,-1,1,-1,-0.87593919303549,0.134902096475276
1,2,6,1,-1,0,1.374,-1,-1,-2.70717126795716,1,1,-1,1,-1.04619365677761,-0.87593919303549
1,2,6,2,1,0,1.381,-1,-1,-0.767372940088322,-1,1,-1,-1,-2.70717126795716,-1.04619365677761
1,2,6,3,1,1,1.374,1,-1,-0.728535525506101,-1,-1,-1,-1,-0.767372940088322,-2.70717126795716
1,2,6,4,-1,0,1.405,1,1,-0.767372940088322,-1,-1,1,-1,-0.728535525506101,-0.767372940088322
1,2,6,5,1,1,1.197,-1,-1,-0.596857346318517,1,-1,1,1,-0.767372940088322,-0.728535525506101
1,2,6,6,1,1,1.315,1,1,-1.82135124430223,-1,1,-1,1,-0.596857346318517,-0.767372940088322
1,2,6,7,1,0,1.275,1,1,-1.10280444916768,1,-1,1,-1,-1.82135124430223,-0.596857346318517
1,2,6,8,1,0,1.553,1,-1,-1.33888907137772,1,1,1,1,-1.10280444916768,-1.82135124430223
1,2,6,9,-1,1,1.226,1,-1,0.168561728183623,-1,1,1,1,-1.33888907137772,-1.10280444916768
1,2,6,10,-1,0,1.996,-1,1,-1.63839878068093,-1,-1,1,1,0.168561728183623,-1.33888907137772
1,2,6,11,1,1,1.527,-1,-1,2.08653090835362,1,-1,-1,1,-1.63839878068093,0.168561728183623
1,2,6,12,1,1,1.613,1,1,0.0395272150793763,-1,1,-1,-1,2.08653090835362,-1.63839878068093
1,2,6,13,1,1,1.402,1,1,0.458272925179296,1,-1,1,-1,0.0395272150793763,2.08653090835362
1,2,6,14,-1,1,1.439,1,1,-0.61319358037526,1,1,1,1,0.458272925179296,0.0395272150793763
1,2,6,15,-1,0,1.432,-1,1,-0.414113418165966,1,1,1,1,-0.61319358037526,0.458272925179296
1,2,6,16,-1,0,1.524,-1,-1,-0.451381637930363,1,1,-1,1,-0.414113418165966,-0.61319358037526
1,2,6,17,1,1,1.227,-1,-1,0.0244974522749381,-1,1,-1,-1,-0.451381637930363,-0.414113418165966
1,2,6,18,1,1,1.615,1,1,-1.63216752723915,-1,-1,-1,-1,0.0244974522749381,-0.451381637930363
1,2,6,19,-1,0,1.466,1,1,0.467743350087493,1,-1,1,-1,-1.63216752723915,0.0244974522749381
1,2,6,20,1,1,1.29,-1,-1,-0.272043191615337,1,1,1,1,0.467743350087493,-1.63216752723915
1,2,6,21,-1,0,1.735,1,1,-1.24950054451124,-1,1,-1,1,-0.272043191615337,0.467743350087493
1,2,6,22,1,1,1.582,-1,-1,1.01550955584546,1,-1,1,-1,-1.24950054451124,-0.272043191615337
1,2,6,23,-1,0,1.73,1,1,0.309960546613199,-1,1,-1,1,1.01550955584546,-1.24950054451124
1,2,6,24,-1,0,1.376,-1,-1,0.993452882749917,1,-1,1,-1,0.309960546613199,1.01550955584546
1,2,6,25,1,0,1.643,-1,-1,-0.756256382604061,-1,1,-1,1,0.993452882749917,0.309960546613199
1,2,6,26,1,0,1.673,1,-1,0.599111651288938,-1,-1,-1,-1,-0.756256382604061,0.993452882749917
1,2,6,27,-1,0,1.674,1,-1,0.737401888572016,-1,-1,1,-1,0.599111651288938,-0.756256382604061
1,2,6,28,1,1,1.613,-1,-1,0.741968743755989,-1,-1,1,1,0.737401888572016,0.599111651288938
1,2,6,29,1,1,1.315,1,1,0.458272925179296,-1,-1,-1,1,0.741968743755989,0.737401888572016
1,2,6,30,1,0,1.377,1,1,-1.10280444916768,1,-1,1,-1,0.458272925179296,0.741968743755989
1,2,6,31,1,1,1.673,1,-1,-0.750704161565848,1,1,1,1,-1.10280444916768,0.458272925179296
1,2,6,32,-1,1,1.615,1,1,0.737401888572016,-1,1,1,1,-0.750704161565848,-1.10280444916768
1,2,6,33,-1,0,1.764,-1,1,0.467743350087493,1,-1,1,1,0.737401888572016,-0.750704161565848
1,2,6,34,1,0,1.734,-1,-1,1.14219798161218,1,1,-1,1,0.467743350087493,0.737401888572016
1,2,6,35,1,1,1.583,1,-1,1.01110331074044,-1,1,-1,-1,1.14219798161218,0.467743350087493
1,2,6,36,1,1,1.408,1,1,0.314790014023805,-1,-1,1,-1,1.01110331074044,1.14219798161218
1,2,6,37,-1,1,1.616,1,1,-0.580555956726312,1,-1,1,1,0.314790014023805,1.01110331074044
1,2,6,38,1,0,1.286,-1,1,0.472474165418351,1,1,1,1,-0.580555956726312,0.314790014023805
1,2,6,39,1,1,1.346,1,-1,-1.27323544533591,1,1,-1,1,0.472474165418351,-0.580555956726312
1,2,6,40,-1,0,1.612,1,1,-0.924726802744857,-1,1,1,-1,-1.27323544533591,0.472474165418351
1,2,6,41,-1,0,1.527,-1,-1,0.45353330833098,1,-1,1,1,-0.924726802744857,-1.27323544533591
1,2,6,42,1,1,1.466,-1,-1,0.0395272150793763,-1,1,-1,1,0.45353330833098,-0.924726802744857
1,2,6,43,-1,0,1.853,1,1,-0.272043191615337,-1,-1,-1,-1,0.0395272150793763,0.45353330833098
1,2,6,44,1,1,1.257,-1,-1,1.51838353154776,1,-1,1,-1,-0.272043191615337,0.0395272150793763
1,2,6,45,-1,0,1.769,1,1,-1.44755391509125,-1,1,-1,1,1.51838353154776,-0.272043191615337
1,2,6,46,-1,0,1.972,-1,-1,1.16383012716942,1,-1,1,-1,-1.44755391509125,1.51838353154776
1,2,6,47,1,0,1.999,-1,-1,1.99407858833207,-1,1,-1,1,1.16383012716942,-1.44755391509125
1,2,6,48,-1,0,1.676,1,-1,2.09800920626534,-1,-1,-1,-1,1.99407858833207,1.16383012716942
1,2,6,49,1,1,1.491,-1,-1,0.751094275494474,-1,-1,1,-1,2.09800920626534,1.99407858833207
1,2,6,50,-1,1,1.466,1,1,-0.142810624381432,-1,-1,-1,1,0.751094275494474,2.09800920626534
1,2,6,51,1,1,1.616,-1,1,-0.272043191615337,1,-1,1,-1,-0.142810624381432,0.751094275494474
1,2,6,52,-1,0,1.556,1,1,0.472474165418351,1,1,-1,1,-0.272043191615337,-0.142810624381432
1,2,6,53,1,0,1.705,-1,-1,0.183311102828231,1,1,1,-1,0.472474165418351,-0.272043191615337
1,2,6,54,-1,1,1.283,1,-1,0.882204456700524,-1,1,-1,1,0.183311102828231,0.472474165418351
1,2,6,55,1,1,1.735,-1,1,-1.2910851192877,-1,-1,1,-1,0.882204456700524,0.183311102828231
1,2,6,56,-1,0,1.501,1,1,1.01550955584546,1,-1,-1,1,-1.2910851192877,0.882204456700524
1,2,6,57,1,1,1.496,-1,-1,-0.0917233223709045,1,1,1,-1,1.01550955584546,-1.2910851192877
1,2,6,58,1,1,1.791,1,1,-0.117224286714133,-1,1,-1,1,-0.0917233223709045,1.01550955584546
1,2,6,59,1,1,1.644,1,1,1.25829082533161,1,-1,1,-1,-0.117224286714133,-0.0917233223709045
1,2,6,60,1,1,1.709,1,1,0.603761868604883,1,1,1,1,1.25829082533161,-0.117224286714133
1,2,6,61,1,1,1.497,1,1,0.900113385628759,1,1,1,1,0.603761868604883,1.25829082533161
1,2,6,62,-1,0,1.522,1,1,-0.112117282232105,1,1,1,1,0.900113385628759,0.603761868604883
1,2,6,63,1,1,2.067,-1,-1,0.0144611646567223,1,1,1,1,-0.112117282232105,0.900113385628759
1,2,6,64,1,1,1.591,1,1,2.35366460769887,-1,1,-1,1,0.0144611646567223,-0.112117282232105
1,2,6,65,1,0,1.434,1,1,0.353316280474229,1,-1,1,-1,2.35366460769887,0.0144611646567223
1,2,6,66,-1,0,1.822,1,-1,-0.440715018023089,1,1,1,1,0.353316280474229,2.35366460769887
1,2,6,67,-1,0,1.494,-1,-1,1.38944355370852,-1,1,1,1,-0.440715018023089,0.353316280474229
1,2,6,68,-1,0,1.525,-1,-1,-0.127448544992122,-1,-1,-1,1,1.38944355370852,-0.440715018023089
1,2,6,69,-1,0,1.528,-1,-1,0.0295106580453564,-1,-1,-1,-1,-0.127448544992122,1.38944355370852
1,2,6,70,-1,1,1.643,-1,-1,0.0445305749457784,-1,-1,-1,-1,0.0295106580453564,-0.127448544992122
1,2,6,71,-1,0,1.792,-1,1,0.599111651288938,-1,-1,-1,-1,0.0445305749457784,0.0295106580453564
1,2,6,72,1,0,1.441,-1,-1,1.26255687731119,1,-1,-1,-1,0.599111651288938,0.0445305749457784
1,2,6,73,-1,0,1.44,1,-1,-0.403498649899952,-1,1,-1,-1,1.26255687731119,0.599111651288938
1,2,6,74,-1,0,1.166,-1,-1,-0.408804191191099,-1,-1,1,-1,-0.403498649899952,1.26255687731119
1,2,6,75,-1,0,1.438,-1,-1,-2.02188885148747,-1,-1,-1,1,-0.408804191191099,-0.403498649899952
1,2,6,76,-1,0,1.346,-1,-1,-0.4194263359489,-1,-1,-1,-1,-2.02188885148747,-0.408804191191099
1,2,6,77,-1,0,1.406,-1,-1,-0.924726802744857,-1,-1,-1,-1,-0.4194263359489,-2.02188885148747
1,2,6,78,-1,0,1.315,-1,-1,-0.591419685524941,-1,-1,-1,-1,-0.924726802744857,-0.4194263359489
1,2,6,79,-1,0,1.529,-1,-1,-1.10280444916768,-1,-1,-1,-1,-0.591419685524941,-0.924726802744857
1,2,7,0,1,0,1.005,-1,-1,0.0495306614329035,-1,-1,-1,-1,-1.10280444916768,-0.591419685524941
1,2,7,1,1,0,1.524,1,-1,-3.79695988770725,-1,-1,-1,-1,0.0495306614329035,-1.10280444916768
1,2,7,2,-1,0,1.376,1,-1,-0.933180825584598,-1,-1,1,-1,-3.79695988770725,0.0495306614329035
1,2,7,3,1,1,1.832,-1,-1,-1.63585042967744,-1,-1,1,1,-0.933180825584598,-3.79695988770725
1,2,7,4,-1,0,1.559,1,1,0.332903251577535,-1,-1,-1,1,-1.63585042967744,-0.933180825584598
1,2,7,5,1,1,1.916,-1,-1,-0.777001638110543,1,-1,1,-1,0.332903251577535,-1.63585042967744
1,2,7,6,1,0,1.68,1,1,0.641266360356142,-1,1,-1,1,-0.777001638110543,0.332903251577535
1,2,7,7,-1,0,1.472,1,-1,-0.262855528820202,1,-1,1,-1,0.641266360356142,-0.777001638110543
1,2,7,8,-1,0,1.526,-1,-1,-1.17197027340233,-1,1,1,1,-0.262855528820202,0.641266360356142
1,2,7,9,1,1,1.682,-1,-1,-0.924160126421013,-1,-1,-1,1,-1.17197027340233,-0.262855528820202
1,2,7,10,1,1,2.011,1,1,-0.254671967918663,-1,-1,-1,-1,-0.924160126421013,-1.17197027340233
1,2,7,11,1,1,1.558,1,1,0.974123155218307,1,-1,1,-1,-0.254671967918663,-0.924160126421013
1,2,7,12,-1,0,1.552,1,1,-0.781415037123921,1,1,1,1,0.974123155218307,-0.254671967918663
1,2,7,13,-1,0,2.093,-1,-1,-0.807955065394578,1,1,1,1,-0.781415037123921,0.974123155218307
1,2,7,14,-1,0,1.799,-1,-1,1.24902286690177,-1,1,-1,1,-0.807955065394578,-0.781415037123921
1,2,7,15,-1,0,1.647,-1,-1,0.207874576270562,-1,-1,-1,-1,1.24902286690177,-0.807955065394578
1,2,7,16,1,1,1.287,-1,-1,-0.399309243526442,-1,-1,-1,-1,0.207874576270562,1.24902286690177
1,2,7,17,1,1,1.347,1,1,-2.09577921991846,-1,-1,-1,-1,-0.399309243526442,0.207874576270562
1,2,7,18,-1,0,1.643,1,1,-1.78236363105296,1,-1,1,-1,-2.09577921991846,-0.399309243526442
1,2,7,19,-1,0,1.704,-1,-1,-0.416034557849818,1,1,1,1,-1.78236363105296,-2.09577921991846
1,2,7,20,-1,0,1.854,-1,-1,-0.165289607486009,-1,1,-1,1,-0.416034557849818,-1.78236363105296
1,2,7,21,-1,0,1.8,-1,-1,0.415010687109922,-1,-1,-1,-1,-0.165289607486009,-0.416034557849818
1,2,7,22,1,1,1.856,-1,-1,0.211696905975133,-1,-1,-1,-1,0.415010687109922,-0.165289607486009
1,2,7,23,1,0,1.525,1,1,0.422426625430857,-1,-1,-1,-1,0.211696905975133,0.415010687109922
1,2,7,24,1,1,1.81,1,-1,-0.928668997199559,1,-1,1,-1,0.422426625430857,0.211696905975133
1,2,7,25,-1,0,1.887,1,1,0.249803829629569,-1,1,1,1,-0.928668997199559,0.422426625430857
1,2,7,26,-1,0,1.616,-1,-1,0.536362837800383,1,-1,1,1,0.249803829629569,-0.928668997199559
1,2,7,27,-1,1,1.737,-1,-1,-0.530006860110477,-1,1,-1,1,0.536362837800383,0.249803829629569
1,2,7,28,-1,0,1.946,-1,1,-0.0333568732206046,-1,-1,-1,-1,-0.530006860110477,0.536362837800383
1,2,7,29,1,1,1.59,-1,-1,0.748129443948949,1,-1,-1,-1,-0.0333568732206046,-0.530006860110477
1,2,7,30,-1,0,1.708,1,1,-0.641572210099889,-1,1,-1,-1,0.748129443948949,-0.0333568732206046
1,2,7,31,-1,0,2.188,-1,-1,-0.149162326647891,1,-1,1,-1,-0.641572210099889,0.748129443948949
1,2,7,32,1,1,1.827,-1,-1,1.55434596619087,-1,1,-1,1,-0.149162326647891,-0.641572210099889
1,2,7,33,1,1,2.155,1,1,0.314104983177281,-1,-1,-1,-1,1.55434596619087,-0.149162326647891
1,2,7,34,-1,1,2.01,1,1,1.44981560528539,1,-1,1,-1,0.314104983177281,1.55434596619087
1,2,7,35,-1,0,1.916,-1,1,0.970701975278903,1,1,1,1,1.44981560528539,0.314104983177281
1,2,7,36,1,1,2.308,-1,-1,0.641266360356142,1,1,-1,1,0.970701975278903,1.44981560528539
1,2,7,37,-1,0,1.703,1,1,1.92160127587916,-1,1,-1,-1,0.641266360356142,0.970701975278903
1,2,7,38,1,1,1.982,-1,-1,-0.169327342927092,1,-1,1,-1,1.92160127587916,0.641266360356142
1,2,7,39,1,1,1.973,1,1,0.874211465299105,-1,1,-1,1,-0.169327342927092,1.92160127587916
1,2,7,40,-1,0,2.036,1,1,0.842906966693676,1,-1,1,-1,0.874211465299105,-0.169327342927092
1,2,7,41,-1,0,2.099,-1,-1,1.05910424764694,1,1,1,1,0.842906966693676,0.874211465299105
1,2,7,42,-1,0,2.038,-1,-1,1.2687126192587,-1,1,-1,1,1.05910424764694,0.842906966693676
1,2,7,43,1,0,2.225,-1,-1,1.0658575934289,-1,-1,-1,-1,1.2687126192587,1.05910424764694
1,2,7,44,1,0,1.648,1,-1,1.6696880927968,-1,-1,-1,-1,1.0658575934289,1.2687126192587
1,2,7,45,1,1,2.12,1,-1,-0.395134261834459,-1,-1,1,-1,1.6696880927968,1.0658575934289
1,2,7,46,-1,0,1.832,1,1,1.337186246921,-1,-1,1,1,-0.395134261834459,1.6696880927968
1,2,7,47,1,1,1.526,-1,-1,0.332903251577535,1,-1,1,1,1.337186246921,-0.395134261834459
1,2,7,48,1,1,1.555,1,1,-0.924160126421013,-1,1,-1,1,0.332903251577535,1.337186246921
1,2,7,49,-1,0,1.621,1,1,-0.794672250594587,1,-1,1,-1,-0.924160126421013,0.332903251577535
1,2,7,50,-1,0,1.882,-1,-1,-0.508757902443808,1,1,1,1,-0.794672250594587,-0.924160126421013
1,2,7,51,-1,0,1.556,-1,-1,0.51811320617025,-1,1,-1,1,-0.508757902443808,-0.794672250594587
1,2,7,52,-1,0,2.123,-1,-1,-0.790250339721387,-1,-1,-1,-1,0.51811320617025,-0.508757902443808
1,2,7,53,1,0,1.442,-1,-1,1.34691278466206,-1,-1,-1,-1,-0.790250339721387,0.51811320617025
1,2,7,54,1,0,1.735,1,-1,-1.31360085303241,-1,-1,-1,-1,1.34691278466206,-0.790250339721387
1,2,7,55,-1,0,1.677,1,-1,-0.0412811622610955,-1,-1,1,-1,-1.31360085303241,1.34691278466206
1,2,7,56,-1,0,1.558,-1,-1,-0.275149155196268,-1,-1,1,1,-0.0412811622610955,-1.31360085303241
1,2,7,57,-1,0,1.736,-1,-1,-0.781415037123921,-1,-1,-1,1,-0.275149155196268,-0.0412811622610955
1,2,7,58,1,0,2.092,-1,-1,-0.0373178765701303,-1,-1,-1,-1,-0.781415037123921,-0.275149155196268
1,2,7,59,1,1,1.47,1,-1,1.24573575471192,-1,-1,-1,-1,-0.0373178765701303,-0.781415037123921
1,2,7,60,-1,0,1.856,1,1,-1.18132212001816,-1,-1,1,-1,1.24573575471192,-0.0373178765701303
1,2,7,61,1,1,1.829,-1,-1,0.422426625430857,1,-1,1,1,-1.18132212001816,1.24573575471192
1,2,7,62,1,1,1.703,1,1,0.321630456713927,-1,1,-1,1,0.422426625430857,-1.18132212001816
1,2,7,63,1,1,1.799,1,1,-0.169327342927092,1,-1,1,-1,0.321630456713927,0.422426625430857
1,2,7,64,1,1,1.498,1,1,0.207874576270562,1,1,1,1,-0.169327342927092,0.321630456713927
1,2,7,65,-1,0,1.465,1,1,-1.05153936167571,1,1,1,1,0.207874576270562,-0.169327342927092
1,2,7,66,-1,0,1.711,-1,-1,-1.20475751620341,1,1,1,1,-1.05153936167571,0.207874576270562
1,2,7,67,-1,0,1.834,-1,-1,-0.137091632483041,-1,1,-1,1,-1.20475751620341,-1.05153936167571
1,2,7,68,1,1,1.554,-1,-1,0.340408197359049,-1,-1,-1,-1,-0.137091632483041,-1.20475751620341
1,2,7,69,-1,1,1.914,1,1,-0.799097006055228,-1,-1,-1,-1,0.340408197359049,-0.137091632483041
1,2,7,70,1,0,1.468,-1,1,0.63408277523701,1,-1,1,-1,-0.799097006055228,0.340408197359049
1,2,7,71,1,0,1.557,1,-1,-1.19068669890016,1,1,-1,1,0.63408277523701,-0.799097006055228
1,2,7,72,-1,0,1.583,1,-1,-0.785831269780522,-1,1,1,-1,-1.19068669890016,0.63408277523701
1,2,7,73,1,0,2.1,-1,-1,-0.671920809530005,-1,-1,1,1,-0.785831269780522,-1.19068669890016
1,2,7,74,1,0,2.032,1,-1,1.27198877179806,-1,-1,-1,1,-0.671920809530005,-0.785831269780522
1,2,7,75,1,1,1.923,1,-1,1.04557763143629,-1,-1,1,-1,1.27198877179806,-0.671920809530005
1,2,7,76,1,0,2.243,1,1,0.666349990595666,-1,-1,1,1,1.04557763143629,1.27198877179806
1,2,7,77,-1,0,1.886,1,-1,1.72510874995368,1,-1,1,1,0.666349990595666,1.04557763143629
1,2,7,78,1,1,1.853,-1,-1,0.532716783049561,-1,1,1,1,1.72510874995368,0.666349990595666
1,2,7,79,-1,0,1.678,1,1,0.411299717434598,-1,-1,-1,1,0.532716783049561,1.72510874995368
1,2,8,0,-1,0,1.1,-1,-1,-0.271048837860914,1,-1,1,-1,0.411299717434598,0.532716783049561
1,2,8,1,-1,0,1.198,-1,-1,-2.20142682718821,-1,1,-1,1,-0.271048837860914,0.411299717434598
1,2,8,2,1,0,1.287,-1,-1,-1.61393448659332,-1,-1,-1,-1,-2.20142682718821,-0.271048837860914
1,2,8,3,1,0,1.319,1,-1,-1.12063339203238,-1,-1,-1,-1,-1.61393448659332,-2.20142682718821
1,2,8,4,-1,0,1.261,1,-1,-0.951565916535689,-1,-1,1,-1,-1.12063339203238,-1.61393448659332
1,2,8,5,1,1,1.284,-1,-1,-1.26112541623677,-1,-1,1,1,-0.951565916535689,-1.12063339203238
1,2,8,6,1,0,1.289,1,1,-1.13669844074101,-1,-1,-1,1,-1.26112541623677,-0.951565916535689
1,2,8,7,1,1,1.38,1,-1,-1.10994415037004,1,-1,1,-1,-1.13669844074101,-1.26112541623677
1,2,8,8,-1,1,1.705,1,1,-0.640348721116444,-1,1,1,1,-1.10994415037004,-1.13669844074101
1,2,8,9,-1,0,1.463,-1,1,0.815463252610344,1,-1,1,1,-0.640348721116444,-1.10994415037004
1,2,8,10,1,1,1.558,-1,-1,-0.238291991570506,1,1,-1,1,0.815463252610344,-0.640348721116444
1,2,8,11,-1,0,1.68,1,1,0.194798619321309,-1,1,-1,-1,-0.238291991570506,0.815463252610344
1,2,8,12,1,1,1.201,-1,-1,0.713779420794637,1,-1,1,-1,0.194798619321309,-0.238291991570506
1,2,8,13,1,0,1.558,1,1,-1.5967176283131,-1,1,-1,1,0.713779420794637,0.194798619321309
1,2,8,14,-1,0,1.439,1,-1,0.194798619321309,1,-1,1,-1,-1.5967176283131,0.713779420794637
1,2,8,15,-1,0,1.739,-1,-1,-0.352155983781775,-1,1,1,1,0.194798619321309,-1.5967176283131
1,2,8,16,1,1,1.466,-1,-1,0.951386128627227,-1,-1,-1,1,-0.352155983781775,0.194798619321309
1,2,8,17,-1,1,1.349,1,1,-0.22419051122653,-1,-1,-1,-1,0.951386128627227,-0.352155983781775
1,2,8,18,-1,1,1.739,-1,1,-0.796749715805751,1,-1,1,-1,-0.22419051122653,0.951386128627227
1,2,8,19,-1,0,1.435,-1,1,0.951386128627227,1,1,-1,1,-0.796749715805751,-0.22419051122653
1,2,8,20,-1,1,1.678,-1,-1,-0.37131777833217,1,1,-1,-1,0.951386128627227,-0.796749715805751
1,2,8,21,1,1,1.442,-1,1,0.705579455265942,-1,1,-1,-1,-0.37131777833217,0.951386128627227
1,2,8,22,1,1,1.409,1,1,-0.337819560174419,1,-1,-1,-1,0.705579455265942,-0.37131777833217
1,2,8,23,-1,1,1.47,1,1,-0.497186704430113,1,1,1,-1,-0.337819560174419,0.705579455265942
1,2,8,24,-1,0,1.436,-1,1,-0.205433359982701,1,1,1,1,-0.497186704430113,-0.337819560174419
1,2,8,25,1,0,1.979,-1,-1,-0.366522326903573,1,1,-1,1,-0.205433359982701,-0.497186704430113
1,2,8,26,-1,0,1.438,1,-1,1.84134272673421,-1,1,-1,-1,-0.366522326903573,-0.205433359982701
1,2,8,27,-1,0,1.736,-1,-1,-0.356941434268109,-1,-1,1,-1,1.84134272673421,-0.366522326903573
1,2,8,28,-1,1,1.443,-1,-1,0.939500306542236,-1,-1,-1,1,-0.356941434268109,1.84134272673421
1,2,8,29,-1,0,1.65,-1,1,-0.333047379569181,-1,-1,-1,-1,0.939500306542236,-0.356941434268109
1,2,8,30,-1,0,2.042,-1,-1,0.589742366862744,1,-1,-1,-1,-0.333047379569181,0.939500306542236
1,2,8,31,1,0,1.68,-1,-1,2.05706981823144,-1,1,-1,-1,0.589742366862744,-0.333047379569181
1,2,8,32,1,0,1.584,1,-1,0.713779420794637,-1,-1,-1,-1,2.05706981823144,0.589742366862744
1,2,8,33,1,1,1.378,1,-1,0.308729053346611,-1,-1,1,-1,0.713779420794637,2.05706981823144
1,2,8,34,-1,0,1.525,1,1,-0.65033258109327,-1,-1,1,1,0.308729053346611,0.713779420794637
1,2,8,35,-1,0,1.257,-1,-1,0.0474250257482923,1,-1,1,1,-0.65033258109327,0.308729053346611
1,2,8,36,1,0,1.406,-1,-1,-1.28299634884337,-1,1,-1,1,0.0474250257482923,-0.65033258109327
1,2,8,37,1,1,1.647,1,-1,-0.511859257581455,-1,-1,-1,-1,-1.28299634884337,0.0474250257482923
1,2,8,38,1,0,1.734,1,1,0.57721484703162,-1,-1,1,-1,-0.511859257581455,-1.28299634884337
1,2,8,39,-1,0,1.798,1,-1,0.931565008548412,1,-1,1,1,0.57721484703162,-0.511859257581455
1,2,8,40,1,1,1.232,-1,-1,1.18106439893185,-1,1,1,1,0.931565008548412,0.57721484703162
1,2,8,41,1,1,0.989,1,1,-1.42128686223019,-1,-1,-1,1,1.18106439893185,0.931565008548412
1,2,8,42,1,1,1.501,1,1,-2.93367186464956,1,-1,1,-1,-1.42128686223019,1.18106439893185
1,2,8,43,-1,1,1.734,1,1,-0.0617728264011974,1,1,1,1,-2.93367186464956,-1.42128686223019
1,2,8,44,1,1,1.828,-1,1,0.931565008548412,1,1,1,1,-0.0617728264011974,-2.93367186464956
1,2,8,45,-1,0,1.852,1,1,1.29497549643308,1,1,-1,1,0.931565008548412,-0.0617728264011974
1,2,8,46,1,1,1.884,-1,-1,1.38476638139736,1,1,1,-1,1.29497549643308,0.931565008548412
1,2,8,47,1,0,1.529,1,1,1.5026942374792,-1,1,-1,1,1.38476638139736,1.29497549643308
1,2,8,48,-1,0,1.409,1,-1,0.0654574401129733,1,-1,1,-1,1.5026942374792,1.38476638139736
1,2,8,49,-1,0,1.349,-1,-1,-0.497186704430113,-1,1,1,1,0.0654574401129733,1.5026942374792
1,2,8,50,1,1,1.739,-1,-1,-0.796749715805751,-1,-1,-1,1,-0.497186704430113,0.0654574401129733
1,2,8,51,-1,0,1.531,1,1,0.951386128627227,-1,-1,-1,-1,-0.796749715805751,-0.497186704430113
1,2,8,52,1,1,1.261,-1,-1,0.0744559645934936,1,-1,1,-1,0.951386128627227,-0.796749715805751
1,2,8,53,1,1,1.462,1,1,-1.26112541623677,-1,1,-1,1,0.0744559645934936,0.951386128627227
1,2,8,54,1,0,1.708,1,1,-0.242998911581151,1,-1,1,-1,-1.26112541623677,0.0744559645934936
1,2,8,55,-1,0,1.623,1,-1,0.827564990706309,1,1,1,1,-0.242998911581151,-1.26112541623677
1,2,8,56,-1,0,1.587,-1,-1,0.476165395919206,-1,1,1,1,0.827564990706309,-0.242998911581151
1,2,8,57,1,1,1.557,-1,-1,0.321754355714033,-1,-1,-1,1,0.476165395919206,0.827564990706309
1,2,8,58,1,1,1.648,1,1,0.190378798785933,-1,-1,-1,-1,0.321754355714033,0.476165395919206
1,2,8,59,1,0,1.764,1,1,0.581393220602919,1,-1,1,-1,0.190378798785933,0.321754355714033
1,2,8,60,-1,0,1.615,1,-1,1.04964458028471,1,1,1,1,0.581393220602919,0.190378798785933
1,2,8,61,1,0,1.708,-1,-1,0.442149908560697,-1,1,1,1,1.04964458028471,0.581393220602919
1,2,8,62,1,0,1.316,1,-1,0.827564990706309,-1,-1,-1,1,0.442149908560697,1.04964458028471
1,2,8,63,1,0,1.618,1,-1,-0.96724077017149,-1,-1,1,-1,0.827564990706309,0.442149908560697
1,2,8,64,1,1,1.794,1,-1,0.454925421501926,-1,-1,1,1,-0.96724077017149,0.827564990706309
1,2,8,65,-1,0,1.436,1,1,1.16573283302346,-1,-1,1,1,0.454925421501926,-0.96724077017149
1,2,8,66,-1,1,1.434,-1,-1,-0.366522326903573,1,-1,1,1,1.16573283302346,0.454925421501926
1,2,8,67,1,1,1.467,-1,1,-0.376116572703825,-1,1,-1,1,-0.366522326903573,1.16573283302346
1,2,8,68,-1,1,1.317,1,1,-0.219496429730378,1,-1,-1,-1,-0.376116572703825,-0.366522326903573
1,2,8,69,-1,0,1.649,-1,1,-0.962011852147676,1,1,1,-1,-0.219496429730378,-0.376116572703825
1,2,8,70,1,1,1.411,-1,-1,0.585569059522215,1,1,-1,1,-0.962011852147676,-0.219496429730378
1,2,8,71,-1,0,1.404,1,1,-0.487422347832176,-1,1,-1,-1,0.585569059522215,-0.962011852147676
1,2,8,72,-1,1,1.406,-1,-1,-0.5216583627911,1,-1,1,-1,-0.487422347832176,0.585569059522215
1,2,8,73,1,1,1.98,-1,1,-0.511859257581455,-1,1,-1,1,-0.5216583627911,-0.487422347832176
1,2,8,74,-1,0,1.528,1,1,1.84482030713015,1,-1,-1,-1,-0.511859257581455,-0.5216583627911
1,2,8,75,1,0,1.291,-1,-1,0.06095376298317,1,1,1,-1,1.84482030713015,-0.511859257581455
1,2,8,76,-1,0,1.676,1,-1,-1.09927148118203,-1,1,-1,1,0.06095376298317,1.84482030713015
1,2,8,77,-1,0,1.202,-1,-1,0.697369710408122,-1,-1,1,-1,-1.09927148118203,0.06095376298317
1,2,8,78,-1,0,1.676,-1,-1,-1.59098823118888,-1,-1,-1,1,0.697369710408122,-1.09927148118203
1,2,8,79,1,1,2.125,-1,-1,0.697369710408122,-1,-1,-1,-1,-1.59098823118888,0.697369710408122
2,1,1,0,-1,0,1.395,1,1,2.3313375454681,-1,-1,-1,-1,0.697369710408122,-1.59098823118888
2,1,1,1,1,1,1.728,-1,-1,-1.08272783607596,1,-1,1,-1,2.3313375454681,0.697369710408122
2,1,1,2,1,1,1.524,1,1,0.00812659791592505,-1,1,-1,1,-1.08272783607596,2.3313375454681
2,1,1,3,1,1,1.223,1,1,-0.632036658465751,1,-1,1,-1,0.00812659791592505,-1.08272783607596
2,1,1,4,-1,0,1.976,1,1,-1.75326878371772,1,1,1,1,-0.632036658465751,0.00812659791592505
2,1,1,5,-1,0,2.001,-1,-1,0.691520984289327,1,1,1,1,-1.75326878371772,-0.632036658465751
2,1,1,6,-1,0,2.115,-1,-1,0.755587426718722,-1,1,-1,1,0.691520984289327,-1.75326878371772
2,1,1,7,1,1,1.583,-1,-1,1.03793303917948,-1,-1,-1,-1,0.755587426718722,0.691520984289327
2,1,1,8,1,1,1.729,1,1,-0.438482084602376,-1,-1,-1,-1,1.03793303917948,0.755587426718722
2,1,1,9,1,1,1.468,1,1,0.0110746903952028,1,-1,1,-1,-0.438482084602376,1.03793303917948
2,1,1,10,1,0,2.684,1,1,-0.822809974373745,1,1,1,1,0.0110746903952028,-0.438482084602376
2,1,1,11,-1,1,2.917,1,-1,2.25201943751503,1,1,1,1,-0.822809974373745,0.0110746903952028
2,1,1,12,1,1,2.234,-1,1,2.67623004846416,-1,1,1,1,2.25201943751503,-0.822809974373745
2,1,1,13,1,0,2.474,1,1,1.31687024518503,1,-1,-1,1,2.67623004846416,2.25201943751503
2,1,1,14,-1,0,2.095,1,-1,1.83685651562327,1,1,1,-1,1.31687024518503,2.67623004846416
2,1,1,15,1,1,1.488,-1,-1,0.989516734733916,-1,1,1,1,1.83685651562327,1.31687024518503
2,1,1,16,-1,0,2.261,1,1,-0.753853878736564,-1,-1,-1,1,0.989516734733916,1.83685651562327
2,1,1,17,1,0,1.522,-1,-1,1.37808833322371,1,-1,1,-1,-0.753853878736564,0.989516734733916
2,1,1,18,-1,0,1.935,1,-1,-0.638728422668771,-1,1,-1,1,1.37808833322371,-0.753853878736564
2,1,1,19,-1,0,1.849,-1,-1,0.584676422727407,-1,-1,1,-1,-0.638728422668771,1.37808833322371
2,1,1,20,1,1,1.819,-1,-1,0.35301027034073,-1,-1,-1,1,0.584676422727407,-0.638728422668771
2,1,1,21,1,1,1.459,1,1,0.269653269179694,-1,-1,-1,-1,0.35301027034073,0.584676422727407
2,1,1,22,-1,0,1.844,1,1,-0.854147278036153,1,-1,1,-1,0.269653269179694,0.35301027034073
2,1,1,23,1,0,1.948,-1,-1,0.339211784497356,1,1,1,1,-0.854147278036153,0.269653269179694
2,1,1,24,-1,0,1.789,1,-1,0.618797132341027,-1,1,-1,1,0.339211784497356,-0.854147278036153
2,1,1,25,-1,0,1.64,-1,-1,0.184910001743889,-1,-1,1,-1,0.618797132341027,0.339211784497356
2,1,1,26,-1,0,2.065,-1,-1,-0.258221695115346,-1,-1,-1,1,0.184910001743889,0.618797132341027
2,1,1,27,1,1,1.874,-1,-1,0.916018666726013,-1,-1,-1,-1,-0.258221695115346,0.184910001743889
2,1,1,28,-1,0,1.554,1,1,0.421447744183434,-1,-1,-1,-1,0.916018666726013,-0.258221695115346
2,1,1,29,-1,0,2.08,-1,-1,-0.532700614080154,1,-1,1,-1,0.421447744183434,0.916018666726013
2,1,1,30,1,0,1.786,-1,-1,0.95290021041461,-1,1,-1,1,-0.532700614080154,0.421447744183434
2,1,1,31,1,0,1.883,1,-1,0.176357645540645,-1,-1,-1,-1,0.95290021041461,-0.532700614080154
2,1,1,32,1,1,1.22,1,-1,0.44586195078562,-1,-1,1,-1,0.176357645540645,0.95290021041461
2,1,1,33,-1,0,1.968,1,1,-1.76578400337326,-1,-1,1,1,0.44586195078562,0.176357645540645
2,1,1,34,1,1,1.382,-1,-1,0.670848429737604,1,-1,1,1,-1.76578400337326,0.44586195078562
2,1,1,35,-1,0,1.429,1,1,-1.13043802270002,-1,1,-1,1,0.670848429737604,-1.76578400337326
2,1,1,36,1,1,1.369,-1,-1,-0.960019044162898,1,-1,1,-1,-1.13043802270002,0.670848429737604
2,1,1,37,-1,0,1.192,1,1,-1.17859913016494,-1,1,-1,1,-0.960019044162898,-1.13043802270002
2,1,1,38,1,1,1.528,-1,-1,-1.88409924849988,1,-1,1,-1,-1.17859913016494,-0.960019044162898
2,1,1,39,-1,0,1.516,1,1,-0.618679435330762,-1,1,-1,1,-1.88409924849988,-1.17859913016494
2,1,1,40,1,1,1.996,-1,-1,-0.658856603052351,1,-1,1,-1,-0.618679435330762,-1.88409924849988
2,1,1,41,1,0,1.289,1,1,0.742838414043371,-1,1,-1,1,-0.658856603052351,-0.618679435330762
2,1,1,42,-1,0,1.488,1,-1,-1.48543538382377,1,-1,1,-1,0.742838414043371,-0.658856603052351
2,1,1,43,1,0,1.64,-1,-1,-0.753853878736564,-1,1,1,1,-1.48543538382377,0.742838414043371
2,1,1,44,-1,0,1.46,1,-1,-0.258221695115346,-1,-1,-1,1,-0.753853878736564,-1.48543538382377
2,1,1,45,-1,0,2.27,-1,-1,-0.850655823491685,-1,-1,1,-1,-0.258221695115346,-0.753853878736564
2,1,1,46,1,0,2.08,-1,-1,1.39833201439356,-1,-1,-1,1,-0.850655823491685,-0.258221695115346
2,1,1,47,-1,0,1.765,1,-1,0.95290021041461,-1,-1,-1,-1,1.39833201439356,-0.850655823491685
2,1,1,48,-1,0,2.144,-1,-1,0.116085846376802,-1,-1,1,-1,0.95290021041461,1.39833201439356
2,1,1,49,-1,0,1.557,-1,-1,1.10732953481511,-1,-1,-1,1,0.116085846376802,0.95290021041461
2,1,1,50,1,0,1.576,-1,-1,-0.522872688741979,-1,-1,-1,-1,1.10732953481511,0.116085846376802
2,1,1,51,-1,0,1.79,1,-1,-0.461065498556761,-1,-1,-1,-1,-0.522872688741979,1.10732953481511
2,1,1,52,-1,0,1.575,-1,-1,0.187757600425591,-1,-1,1,-1,-0.461065498556761,-0.522872688741979
2,1,1,53,1,0,0.99,-1,-1,-0.464299886293591,-1,-1,-1,1,0.187757600425591,-0.461065498556761
2,1,1,54,1,1,1.847,1,-1,-2.83029805404611,-1,-1,-1,-1,-0.464299886293591,0.187757600425591
2,1,1,55,1,1,1.972,1,1,0.347495358862726,-1,-1,1,-1,-2.83029805404611,-0.464299886293591
2,1,1,56,1,0,1.696,1,1,0.681195190060488,1,-1,1,1,0.347495358862726,-2.83029805404611
2,1,1,57,1,1,2.415,1,-1,-0.0871243568079563,1,1,1,1,0.681195190060488,0.347495358862726
2,1,1,58,-1,0,1.997,1,1,1.71385979600723,-1,1,1,1,-0.0871243568079563,0.681195190060488
2,1,1,59,-1,0,2.294,-1,-1,0.745390769572965,1,-1,1,1,1.71385979600723,-0.0871243568079563
2,1,1,60,1,0,1.886,-1,-1,1.45192526255199,-1,1,-1,1,0.745390769572965,1.71385979600723
2,1,1,61,1,0,1.491,1,-1,0.453974095308516,-1,-1,-1,-1,1.45192526255199,0.745390769572965
2,1,1,62,-1,0,1.581,1,-1,-0.74359047605595,-1,-1,1,-1,0.453974095308516,1.45192526255199
2,1,1,63,-1,0,1.732,-1,-1,-0.444924282310336,-1,-1,1,1,-0.74359047605595,0.453974095308516
2,1,1,64,-1,0,1.733,-1,-1,0.0199087481551471,-1,-1,-1,1,-0.444924282310336,-0.74359047605595
2,1,1,65,1,0,1.905,-1,-1,0.0228500340713231,-1,-1,-1,-1,0.0199087481551471,-0.444924282310336
2,1,1,66,1,0,1.676,1,-1,0.505053276071807,-1,-1,-1,-1,0.0228500340713231,0.0199087481551471
2,1,1,67,-1,0,1.343,1,-1,-0.147573199803643,-1,-1,1,-1,0.505053276071807,0.0228500340713231
2,1,1,68,-1,0,1.339,-1,-1,-1.27630877599161,-1,-1,1,1,-0.147573199803643,0.505053276071807
2,1,1,69,1,1,1.827,-1,-1,-1.29150872076883,-1,-1,-1,1,-1.27630877599161,-0.147573199803643
2,1,1,70,-1,0,1.34,1,1,0.292015467253686,-1,-1,-1,-1,-1.29150872076883,-1.27630877599161
2,1,1,71,-1,0,1.379,-1,-1,-1.2877044819148,1,-1,1,-1,0.292015467253686,-1.29150872076883
2,1,1,72,-1,0,1.789,-1,-1,-1.14151179245089,-1,1,-1,1,-1.2877044819148,0.292015467253686
2,1,1,73,-1,0,1.346,-1,-1,0.184910001743889,-1,-1,-1,-1,-1.14151179245089,-1.2877044819148
2,1,1,74,1,0,1.667,-1,-1,-1.26493849747353,-1,-1,-1,-1,0.184910001743889,-1.14151179245089
2,1,1,75,1,1,1.755,1,-1,-0.175010896588717,-1,-1,-1,-1,-1.26493849747353,0.184910001743889
2,1,1,76,1,0,2.034,1,1,0.087132486051202,-1,-1,1,-1,-0.175010896588717,-1.26493849747353
2,1,1,77,-1,0,1.554,1,-1,0.8389402959978,1,-1,1,1,0.087132486051202,-0.175010896588717
2,1,1,78,-1,0,1.845,-1,-1,-0.532700614080154,-1,1,1,1,0.8389402959978,0.087132486051202
2,1,1,79,1,1,2.06,-1,-1,0.341974472398205,-1,-1,-1,1,-0.532700614080154,0.8389402959978
2,1,2,0,-1,0,1.728,1,1,0.903665260171014,-1,-1,-1,-1,0.341974472398205,-0.532700614080154
2,1,2,1,-1,0,1.935,-1,-1,-0.370060198474956,1,-1,1,-1,0.903665260171014,0.341974472398205
2,1,2,2,-1,0,1.522,-1,-1,0.221489319400424,-1,1,-1,1,-0.370060198474956,0.903665260171014
2,1,2,3,-1,0,1.788,-1,-1,-1.03374399317086,-1,-1,-1,-1,0.221489319400424,-0.370060198474956
2,1,2,4,1,0,2.471,-1,-1,-0.191600860878482,-1,-1,-1,-1,-1.03374399317086,0.221489319400424
2,1,2,5,1,1,1.996,1,-1,1.49990270113792,-1,-1,-1,-1,-0.191600860878482,-1.03374399317086
2,1,2,6,-1,1,2.761,1,1,0.383766100491738,-1,-1,1,-1,1.49990270113792,-0.191600860878482
2,1,2,7,-1,0,2.055,-1,1,2.08009284141002,1,-1,1,1,0.383766100491738,1.49990270113792
2,1,2,8,-1,0,2.474,-1,-1,0.536071468093607,1,1,-1,1,2.08009284141002,0.383766100491738
2,1,2,9,1,0,2.647,-1,-1,1.50624650493577,-1,1,-1,-1,0.536071468093607,2.08009284141002
2,1,2,10,-1,0,2.172,1,-1,1.85963414289273,-1,-1,-1,-1,1.50624650493577,0.536071468093607
2,1,2,11,-1,0,2.327,-1,-1,0.825578616187807,-1,-1,1,-1,1.85963414289273,1.50624650493577
2,1,2,12,1,1,1.82,-1,-1,1.1859765995489,-1,-1,-1,1,0.825578616187807,1.85963414289273
2,1,2,13,1,1,2.028,1,1,-0.0988560611171021,-1,-1,-1,-1,1.1859765995489,0.825578616187807
2,1,2,14,-1,0,2.47,1,1,0.466922541119225,1,-1,1,-1,-0.0988560611171021,1.1859765995489
2,1,2,15,1,1,2.409,-1,-1,1.4977863882215,1,1,1,1,0.466922541119225,-0.0988560611171021
2,1,2,16,-1,1,2.734,1,1,1.3670440108567,-1,1,-1,1,1.4977863882215,0.466922541119225
2,1,2,17,-1,1,2.798,-1,1,2.02871281856585,1,-1,1,-1,1.3670440108567,1.4977863882215
2,1,2,18,1,1,1.761,-1,1,2.14969235329837,1,1,-1,1,2.02871281856585,1.3670440108567
2,1,2,19,1,1,1.432,1,1,-0.27115465082413,1,1,-1,-1,2.14969235329837,2.02871281856585
2,1,2,20,1,1,1.996,1,1,-1.35242866907812,1,1,1,-1,-0.27115465082413,2.14969235329837
2,1,2,21,1,1,1.99,1,1,0.383766100491738,1,1,1,1,-1.35242866907812,-0.27115465082413
2,1,2,22,-1,0,1.787,1,1,0.368025945135532,1,1,1,1,0.383766100491738,-1.35242866907812
2,1,2,23,-1,0,1.989,-1,-1,-0.194525812556796,1,1,1,1,0.368025945135532,0.383766100491738
2,1,2,24,1,0,2.319,-1,-1,0.365397972731059,-1,1,-1,1,-0.194525812556796,0.368025945135532
2,1,2,25,1,1,2.139,1,-1,1.16797106823267,-1,-1,-1,-1,0.365397972731059,-0.194525812556796
2,1,2,26,1,1,1.671,1,1,0.745532709095222,-1,-1,1,-1,1.16797106823267,0.365397972731059
2,1,2,27,1,1,2.326,1,1,-0.545431747261351,1,-1,1,1,0.745532709095222,1.16797106823267
2,1,2,28,-1,0,2.14,1,1,1.18372929627397,1,1,1,1,-0.545431747261351,0.745532709095222
2,1,2,29,1,1,1.663,-1,-1,0.747976434771225,1,1,1,1,1.18372929627397,-0.545431747261351
2,1,2,30,1,1,1.908,1,1,-0.57052286194919,-1,1,-1,1,0.747976434771225,1.18372929627397
2,1,2,31,1,1,1.696,1,1,0.148021820328671,1,-1,1,-1,-0.57052286194919,0.747976434771225
2,1,2,32,1,1,1.908,1,1,-0.467789230588538,1,1,1,1,0.148021820328671,-0.57052286194919
2,1,2,33,1,1,2.204,1,1,0.148021820328671,1,1,1,1,-0.467789230588538,0.148021820328671
2,1,2,34,-1,0,1.37,1,1,0.902045807204969,1,1,1,1,0.148021820328671,-0.467789230588538
2,1,2,35,1,1,2.001,-1,-1,-1.58384243073632,1,1,1,1,0.902045807204969,0.148021820328671
2,1,2,36,-1,0,1.995,1,1,0.396846795302385,-1,1,-1,1,-1.58384243073632,0.902045807204969
2,1,2,37,1,0,1.64,-1,-1,0.381146029783625,1,-1,1,-1,0.396846795302385,-1.58384243073632
2,1,2,38,-1,0,1.164,1,-1,-0.643337888535995,-1,1,-1,1,0.381146029783625,0.396846795302385
2,1,2,39,-1,0,1.581,-1,-1,-2.43579380946268,-1,-1,1,-1,-0.643337888535995,0.381146029783625
2,1,2,40,1,0,1.759,-1,-1,-0.834897786203807,-1,-1,-1,1,-2.43579380946268,-0.643337888535995
2,1,2,41,-1,0,1.52,1,-1,-0.277095959405094,-1,-1,-1,-1,-0.834897786203807,-2.43579380946268
2,1,2,42,-1,0,2.269,-1,-1,-1.04061888040552,-1,-1,1,-1,-0.277095959405094,-0.834897786203807
2,1,2,43,1,1,1.761,-1,-1,1.05400947304251,-1,-1,-1,1,-1.04061888040552,-0.277095959405094
2,1,2,44,-1,0,1.431,1,1,-0.27115465082413,-1,-1,-1,-1,1.05400947304251,-1.04061888040552
2,1,2,45,-1,0,1.635,-1,-1,-1.35608102758405,1,-1,1,-1,-0.27115465082413,1.05400947304251
2,1,2,46,1,0,1.611,-1,-1,-0.659302331439281,-1,1,-1,1,-1.35608102758405,-0.27115465082413
2,1,2,47,-1,1,1.865,1,-1,-0.736617618160908,-1,-1,-1,-1,-0.659302331439281,-1.35608102758405
2,1,2,48,1,1,1.46,-1,1,0.0288440695157901,-1,-1,1,-1,-0.736617618160908,-0.659302331439281
2,1,2,49,1,0,1.163,1,1,-1.25118496077912,1,-1,-1,1,0.0288440695157901,-0.736617618160908
2,1,2,50,-1,0,1.4,1,-1,-2.44028745046867,1,1,1,-1,-1.25118496077912,0.0288440695157901
2,1,2,51,-1,0,1.67,-1,-1,-1.47058852262536,-1,1,1,1,-2.44028745046867,-1.25118496077912
2,1,2,52,1,0,1.933,-1,-1,-0.548561559380331,-1,-1,-1,1,-1.47058852262536,-2.44028745046867
2,1,2,53,-1,0,1.58,1,-1,0.21608254436985,-1,-1,-1,-1,-0.548561559380331,-1.47058852262536
2,1,2,54,1,0,1.607,-1,-1,-0.838205822371503,-1,-1,1,-1,0.21608254436985,-0.548561559380331
2,1,2,55,1,1,1.733,1,-1,-0.749615389898255,-1,-1,-1,1,-0.838205822371503,0.21608254436985
2,1,2,56,1,0,1.577,1,1,-0.354953712991169,-1,-1,1,-1,-0.749615389898255,-0.838205822371503
2,1,2,57,1,1,1.67,1,-1,-0.848142507634181,1,-1,1,1,-0.354953712991169,-0.749615389898255
2,1,2,58,1,0,2.083,1,1,-0.548561559380331,-1,1,1,1,-0.848142507634181,-0.354953712991169
2,1,2,59,-1,0,1.729,1,-1,0.606828385453555,1,-1,1,1,-0.548561559380331,-0.848142507634181
2,1,2,60,-1,0,1.461,-1,-1,-0.367035407538042,-1,1,1,1,0.606828385453555,-0.548561559380331
2,1,2,61,-1,0,1.43,-1,-1,-1.24760512428964,-1,-1,-1,1,-0.367035407538042,0.606828385453555
2,1,2,62,1,0,1.672,-1,-1,-1.35973593929432,-1,-1,-1,-1,-1.24760512428964,-0.367035407538042
2,1,2,63,-1,0,1.577,1,-1,-0.542303807599629,-1,-1,-1,-1,-1.35973593929432,-1.24760512428964
2,1,2,64,1,0,2.77,-1,-1,-0.848142507634181,-1,-1,1,-1,-0.542303807599629,-1.35973593929432
2,1,2,65,1,1,1.79,1,-1,2.09710792021236,-1,-1,-1,1,-0.848142507634181,-0.542303807599629
2,1,2,66,1,1,2.03,1,1,-0.185755861959359,-1,-1,1,-1,2.09710792021236,-0.848142507634181
2,1,2,67,-1,0,1.755,1,1,0.472076164985123,1,-1,1,1,-0.185755861959359,2.09710792021236
2,1,2,68,-1,0,1.997,-1,-1,-0.288998869471828,1,1,1,1,0.472076164985123,-0.185755861959359
2,1,2,69,-1,0,1.908,-1,-1,0.386384858867862,-1,1,-1,1,-0.288998869471828,0.472076164985123
2,1,2,70,1,0,2.266,-1,-1,0.148021820328671,-1,-1,-1,-1,0.386384858867862,-0.288998869471828
2,1,2,71,-1,0,1.933,1,-1,1.04709213886219,-1,-1,-1,-1,0.148021820328671,0.386384858867862
2,1,2,72,-1,0,1.821,-1,-1,0.21608254436985,-1,-1,1,-1,1.04709213886219,0.148021820328671
2,1,2,73,-1,0,2.144,-1,-1,-0.0959841297135942,-1,-1,-1,1,0.21608254436985,1.04709213886219
2,1,2,74,1,0,1.696,-1,-1,0.757739931518188,-1,-1,-1,-1,-0.0959841297135942,0.21608254436985
2,1,2,75,1,0,1.487,1,-1,-0.467789230588538,-1,-1,-1,-1,0.757739931518188,-0.0959841297135942
2,1,2,76,1,0,1.817,1,-1,-1.15537944555259,-1,-1,1,-1,-0.467789230588538,0.757739931518188
2,1,2,77,-1,0,1.521,1,-1,-0.107481332782307,-1,-1,1,1,-1.15537944555259,-0.467789230588538
2,1,2,78,-1,0,1.993,-1,-1,-1.0371803067935,-1,-1,1,1,-0.107481332782307,-1.15537944555259
2,1,2,79,-1,1,1.763,-1,-1,0.375901946105645,-1,-1,-1,1,-1.0371803067935,-0.107481332782307
2,2,3,0,-1,1,1.653,-1,1,-0.265220086068203,-1,-1,-1,-1,0.375901946105645,-1.0371803067935
2,2,3,1,1,0,2.412,-1,1,-0.920322417975483,1,-1,-1,-1,-0.265220086068203,0.375901946105645
2,2,3,2,-1,0,1.867,1,-1,1.35332942804276,1,1,-1,-1,-0.920322417975483,-0.265220086068203
2,2,3,3,1,0,1.534,-1,-1,-0.187793210756646,-1,1,1,-1,1.35332942804276,-0.920322417975483
2,2,3,4,-1,0,1.526,1,-1,-1.36987942013984,-1,-1,-1,1,-0.187793210756646,1.35332942804276
2,2,3,5,-1,0,1.744,-1,-1,-1.40134150247048,-1,-1,1,-1,-1.36987942013984,-0.187793210756646
2,2,3,6,1,1,1.566,-1,-1,-0.597868486455154,-1,-1,-1,1,-1.40134150247048,-1.36987942013984
2,2,3,7,1,0,1.569,1,1,-1.24565081070595,-1,-1,-1,-1,-0.597868486455154,-1.40134150247048
2,2,3,8,-1,0,2.086,1,-1,-1.23413480807738,1,-1,1,-1,-1.24565081070595,-0.597868486455154
2,2,3,9,1,1,1.828,-1,-1,0.47959745404317,-1,1,1,1,-1.23413480807738,-1.24565081070595
2,2,3,10,-1,0,1.506,1,1,-0.314816748941869,-1,-1,-1,1,0.47959745404317,-1.23413480807738
2,2,3,11,-1,0,2.351,-1,-1,-1.48072404613379,1,-1,1,-1,-0.314816748941869,0.47959745404317
2,2,3,12,1,1,2.099,-1,-1,1.1991981027031,-1,1,-1,1,-1.48072404613379,-0.314816748941869
2,2,3,13,-1,0,1.474,1,1,0.516979855752268,-1,-1,-1,-1,1.1991981027031,-1.48072404613379
2,2,3,14,-1,0,1.655,-1,-1,-1.60995552705986,1,-1,1,-1,0.516979855752268,1.1991981027031
2,2,3,15,1,1,1.913,-1,-1,-0.913046589354086,-1,1,-1,1,-1.60995552705986,0.516979855752268
2,2,3,16,1,0,2.576,1,1,-0.0413378122199842,-1,-1,-1,-1,-0.913046589354086,-1.60995552705986
2,2,3,17,-1,0,1.621,1,-1,1.74914409579953,1,-1,1,-1,-0.0413378122199842,-0.913046589354086
2,2,3,18,-1,0,1.769,-1,-1,-1.03794834156834,-1,1,1,1,1.74914409579953,-0.0413378122199842
2,2,3,19,-1,0,2.011,-1,-1,-0.512226426738989,-1,-1,-1,1,-1.03794834156834,1.74914409579953
2,2,3,20,-1,0,2.383,-1,-1,0.259273492312147,-1,-1,-1,-1,-0.512226426738989,-1.03794834156834
2,2,3,21,1,1,1.745,-1,-1,1.28054598521477,-1,-1,-1,-1,0.259273492312147,-0.512226426738989
2,2,3,22,1,0,2.005,1,1,-0.594419297746924,-1,-1,-1,-1,1.28054598521477,0.259273492312147
2,2,3,23,-1,0,1.817,1,-1,0.241294067968446,1,-1,1,-1,-0.594419297746924,1.28054598521477
2,2,3,24,-1,0,1.573,-1,-1,-0.351134118400032,-1,1,1,1,0.241294067968446,-0.594419297746924
2,2,3,25,1,1,1.567,-1,-1,-1.21881434267337,-1,-1,-1,1,-0.351134118400032,0.241294067968446
2,2,3,26,1,1,1.9,1,1,-1.24180969373111,-1,-1,-1,-1,-1.21881434267337,-0.351134118400032
2,2,3,27,-1,0,1.735,1,1,-0.0823673045167672,1,-1,1,-1,-1.24180969373111,-1.21881434267337
2,2,3,28,1,0,1.984,-1,-1,-0.62900048222191,1,1,1,1,-0.0823673045167672,-1.24180969373111
2,2,3,29,-1,0,2.327,1,-1,0.177939609393078,-1,1,-1,1,-0.62900048222191,-0.0823673045167672
2,2,3,30,1,1,1.747,-1,-1,1.13745723228346,-1,-1,1,-1,0.177939609393078,-0.62900048222191
2,2,3,31,1,0,1.68,1,1,-0.58752684620664,-1,-1,-1,1,1.13745723228346,0.177939609393078
2,2,3,32,1,1,1.636,1,-1,-0.822833362238511,1,-1,1,-1,-0.58752684620664,1.13745723228346
2,2,3,33,1,0,1.95,1,1,-0.982524773141561,-1,1,1,1,-0.822833362238511,-0.58752684620664
2,2,3,34,1,1,2.18,1,-1,0.0739300424417794,1,-1,1,1,-0.982524773141561,-0.822833362238511
2,2,3,35,-1,0,1.926,1,1,0.744810704219833,-1,1,1,1,0.0739300424417794,-0.982524773141561
2,2,3,36,-1,0,2.266,-1,-1,-0.000586198272430823,1,-1,1,1,0.744810704219833,0.0739300424417794
2,2,3,37,-1,0,1.984,-1,-1,0.977620409024768,-1,1,-1,1,-0.000586198272430823,0.744810704219833
2,2,3,38,1,0,2.24,-1,-1,0.177939609393078,-1,-1,-1,-1,0.977620409024768,-0.000586198272430823
2,2,3,39,1,0,1.631,1,-1,0.908181179460517,-1,-1,-1,-1,0.177939609393078,0.977620409024768
2,2,3,40,1,0,2.059,1,-1,-1.00094263122144,-1,-1,1,-1,0.908181179460517,0.177939609393078
2,2,3,41,1,0,2.068,1,-1,0.401206981023707,-1,-1,1,1,-1.00094263122144,0.908181179460517
2,2,3,42,1,0,2.118,1,-1,0.427450776360727,-1,-1,1,1,0.401206981023707,-1.00094263122144
2,2,3,43,-1,0,1.745,1,-1,0.571201271362547,-1,-1,1,1,0.427450776360727,0.401206981023707
2,2,3,44,1,1,1.708,-1,-1,-0.594419297746924,-1,-1,1,1,0.571201271362547,0.427450776360727
2,2,3,45,-1,0,2.347,1,1,-0.72337474183221,-1,-1,-1,1,-0.594419297746924,0.571201271362547
2,2,3,46,1,1,2.272,-1,-1,1.18895185154817,1,-1,1,-1,-0.72337474183221,-0.594419297746924
2,2,3,47,-1,0,1.91,1,1,0.993531681945807,-1,1,-1,1,1.18895185154817,-0.72337474183221
2,2,3,48,-1,0,2.072,-1,-1,-0.0507813551525042,1,-1,1,-1,0.993531681945807,1.18895185154817
2,2,3,49,1,0,2.214,-1,-1,0.439078044784084,-1,1,-1,1,-0.0507813551525042,0.993531681945807
2,2,3,50,-1,0,1.734,1,-1,0.837931235595717,-1,-1,-1,-1,0.439078044784084,-0.0507813551525042
2,2,3,51,-1,0,1.692,-1,-1,-0.632469556712202,-1,-1,1,-1,0.837931235595717,0.439078044784084
2,2,3,52,-1,0,1.632,-1,-1,-0.780006779049033,-1,-1,-1,1,-0.632469556712202,0.837931235595717
2,2,3,53,1,0,1.797,-1,-1,-0.997254546805189,-1,-1,-1,-1,-0.780006779049033,-0.632469556712202
2,2,3,54,-1,0,1.388,1,-1,-0.417732579535662,-1,-1,-1,-1,-0.997254546805189,-0.780006779049033
2,2,3,55,-1,0,1.387,-1,-1,-1.9716796728969,-1,-1,1,-1,-0.417732579535662,-0.997254546805189
2,2,3,56,1,0,1.624,-1,-1,-1.97601632860659,-1,-1,-1,1,-1.9716796728969,-0.417732579535662
2,2,3,57,-1,0,2.025,1,-1,-1.02682271213657,-1,-1,-1,-1,-1.97601632860659,-1.9716796728969
2,2,3,58,1,1,1.982,-1,-1,0.301017729867101,-1,-1,1,-1,-1.02682271213657,-1.97601632860659
2,2,3,59,-1,0,2.264,1,1,0.171870915447741,-1,-1,-1,1,0.301017729867101,-1.02682271213657
2,2,3,60,1,1,1.926,-1,-1,0.972307287675806,1,-1,1,-1,0.171870915447741,0.301017729867101
2,2,3,61,1,1,2.426,1,1,-0.000586198272430823,-1,1,-1,1,0.972307287675806,0.171870915447741
2,2,3,62,1,1,2.314,1,1,1.3881536399698,1,-1,1,-1,-0.000586198272430823,0.972307287675806
2,2,3,63,-1,0,2.063,1,1,1.1037478469943,1,1,1,1,1.3881536399698,-0.000586198272430823
2,2,3,64,1,0,2.729,-1,-1,0.412885023576789,1,1,1,1,1.1037478469943,1.3881536399698
2,2,3,65,-1,0,2.126,1,-1,2.09631587306215,-1,1,-1,1,0.412885023576789,1.1037478469943
2,2,3,66,1,0,2.164,-1,-1,0.593885971319484,-1,-1,1,-1,2.09631587306215,0.412885023576789
2,2,3,67,-1,0,1.885,1,-1,0.700485571646238,-1,-1,-1,1,0.593885971319484,2.09631587306215
2,2,3,68,-1,0,2.296,-1,-1,-0.130059307456281,-1,-1,1,-1,0.700485571646238,0.593885971319484
2,2,3,69,-1,0,2.011,-1,-1,1.05675933416509,-1,-1,-1,1,-0.130059307456281,0.700485571646238
2,2,3,70,-1,0,1.824,-1,-1,0.259273492312147,-1,-1,-1,-1,1.05675933416509,-0.130059307456281
2,2,3,71,-1,0,2.293,-1,-1,-0.327997717053383,-1,-1,-1,-1,0.259273492312147,1.05675933416509
2,2,3,72,1,0,2.132,-1,-1,1.04889211639139,-1,-1,-1,-1,-0.327997717053383,0.259273492312147
2,2,3,73,1,0,2.21,1,-1,0.610843548170396,-1,-1,-1,-1,1.04889211639139,-0.327997717053383
2,2,3,74,-1,1,3.188,1,-1,0.827050383558806,-1,-1,1,-1,0.610843548170396,1.04889211639139
2,2,3,75,1,1,1.328,-1,1,3.03172681151874,-1,-1,1,1,0.827050383558806,0.610843548170396
2,2,3,76,1,1,2.159,1,1,-2.23757460627452,1,-1,-1,1,3.03172681151874,0.827050383558806
2,2,3,77,-1,0,2,1,1,0.686566736994747,1,1,1,-1,-2.23757460627452,3.03172681151874
2,2,3,78,1,1,1.834,-1,-1,0.226270066313427,1,1,1,1,0.686566736994747,-2.23757460627452
2,2,3,79,1,0,2.243,1,1,-0.295099277873306,-1,1,-1,1,0.226270066313427,0.686566736994747
2,2,4,0,-1,1,1.885,1,-1,0.916234416714504,1,-1,1,-1,-0.295099277873306,0.226270066313427
2,2,4,1,-1,0,1.617,-1,1,-0.129522332952914,-1,1,1,1,0.916234416714504,-0.295099277873306
2,2,4,2,-1,1,2.504,-1,-1,-0.968157251155601,1,-1,-1,1,-0.129522332952914,0.916234416714504
2,2,4,3,-1,1,2.234,-1,1,1.42334367824271,-1,1,-1,-1,-0.968157251155601,-0.129522332952914
2,2,4,4,1,1,1.684,-1,1,0.79940228601515,1,-1,-1,-1,1.42334367824271,-0.968157251155601
2,2,4,5,1,0,1.945,1,1,-0.74613666608839,1,1,-1,-1,0.79940228601515,1.42334367824271
2,2,4,6,1,1,2.3,1,-1,0.0418309083493067,1,1,1,-1,-0.74613666608839,0.79940228601515
2,2,4,7,-1,0,1.68,1,1,0.958622210554086,-1,1,1,1,0.0418309083493067,-0.74613666608839
2,2,4,8,1,0,2.414,-1,-1,-0.75914161123796,1,-1,1,1,0.958622210554086,0.0418309083493067
2,2,4,9,1,1,2.312,1,-1,1.22317008322174,-1,1,-1,1,-0.75914161123796,0.958622210554086
2,2,4,10,-1,1,2.653,1,1,0.987079743245075,-1,-1,1,-1,1.22317008322174,-0.75914161123796
2,2,4,11,1,1,2.654,-1,1,1.73943629022366,1,-1,1,1,0.987079743245075,1.22317008322174
2,2,4,12,-1,0,2.219,1,1,1.74149718222397,1,1,-1,1,1.73943629022366,0.987079743245075
2,2,4,13,1,1,2.537,-1,-1,0.762560173672573,1,1,1,-1,1.74149718222397,1.73943629022366
2,2,4,14,1,1,1.611,1,1,1.49494281105641,-1,1,-1,1,0.762560173672573,1.74149718222397
2,2,4,15,1,1,1.859,1,1,-0.988486556567956,1,-1,1,-1,1.49494281105641,0.762560173672573
2,2,4,16,1,1,1.612,1,1,-0.205476010294509,1,1,1,1,-0.988486556567956,1.49494281105641
2,2,4,17,-1,0,2.15,1,1,-0.985093086488156,1,1,1,1,-0.205476010294509,-0.988486556567956
2,2,4,18,1,1,2.238,-1,-1,0.589814383113968,1,1,1,1,-0.985093086488156,-0.205476010294509
2,2,4,19,1,0,2.2,1,1,0.809185073701182,-1,1,-1,1,0.589814383113968,-0.985093086488156
2,2,4,20,1,0,2.134,1,-1,0.715534330456781,1,-1,1,-1,0.809185073701182,0.589814383113968
2,2,4,21,1,0,2.238,1,-1,0.548965813289365,-1,1,1,1,0.715534330456781,0.809185073701182
2,2,4,22,-1,0,2.213,1,-1,0.809185073701182,-1,-1,1,1,0.548965813289365,0.715534330456781
2,2,4,23,1,0,1.848,-1,-1,0.747753548585131,-1,-1,1,1,0.809185073701182,0.548965813289365
2,2,4,24,-1,1,2.505,1,-1,-0.237930567617202,-1,-1,-1,1,0.747753548585131,0.809185073701182
2,2,4,25,1,0,2.428,-1,1,1.42552717871416,-1,-1,1,-1,-0.237930567617202,0.747753548585131
2,2,4,26,-1,1,2.68,1,-1,1.25479349890212,1,-1,-1,1,1.42552717871416,-0.237930567617202
2,2,4,27,1,1,1.71,-1,1,1.7948095648267,-1,1,1,-1,1.25479349890212,1.42552717871416
2,2,4,28,1,1,2.118,1,1,-0.662350113513745,1,-1,-1,1,1.7948095648267,1.25479349890212
2,2,4,29,-1,0,1.523,1,1,0.507809819540088,1,1,1,-1,-0.662350113513745,1.7948095648267
2,2,4,30,-1,0,1.823,-1,-1,-1.2956730900173,1,1,1,1,0.507809819540088,-0.662350113513745
2,2,4,31,1,1,2.722,-1,-1,-0.312415195795779,-1,1,-1,1,-1.2956730900173,0.507809819540088
2,2,4,32,1,1,1.639,1,1,1.87984653490887,-1,-1,-1,-1,-0.312415195795779,-1.2956730900173
2,2,4,33,-1,0,2.045,1,1,-0.894256439253388,1,-1,1,-1,1.87984653490887,-0.312415195795779
2,2,4,34,1,1,1.706,-1,-1,0.316002451935956,1,1,1,1,-0.894256439253388,1.87984653490887
2,2,4,35,-1,0,1.92,1,1,-0.67515709093184,-1,1,-1,1,0.316002451935956,-0.894256439253388
2,2,4,36,-1,0,2.027,-1,-1,-0.0289149276995623,1,-1,1,-1,-0.67515709093184,0.316002451935956
2,2,4,37,1,1,1.678,-1,-1,0.267655190346173,-1,1,-1,1,-0.0289149276995623,-0.67515709093184
2,2,4,38,-1,0,1.823,1,1,-0.765655699986905,-1,-1,-1,-1,0.267655190346173,-0.0289149276995623
2,2,4,39,1,0,1.714,-1,-1,-0.312415195795779,1,-1,1,-1,-0.765655699986905,0.267655190346173
2,2,4,40,-1,0,1.404,1,-1,-0.649573058967342,-1,1,-1,1,-0.312415195795779,-0.765655699986905
2,2,4,41,1,1,2.331,-1,-1,-1.74057883044518,-1,-1,1,-1,-0.649573058967342,-0.312415195795779
2,2,4,42,1,1,1.939,1,1,1.03183681423137,-1,-1,-1,1,-1.74057883044518,-0.649573058967342
2,2,4,43,1,1,2.779,1,1,0.0249351888595003,1,-1,1,-1,1.03183681423137,-1.74057883044518
2,2,4,44,-1,0,2.488,1,1,1.99317866989068,1,1,1,1,0.0249351888595003,1.03183681423137
2,2,4,45,1,0,1.848,-1,-1,1.3882885783441,1,1,1,1,1.99317866989068,0.0249351888595003
2,2,4,46,1,1,2.244,1,-1,-0.237930567617202,-1,1,-1,1,1.3882885783441,1.99317866989068
2,2,4,47,1,1,1.739,1,1,0.823826519818555,-1,-1,1,-1,-0.237930567617202,1.3882885783441
2,2,4,48,-1,1,1.734,1,1,-0.570385795527541,1,-1,1,1,0.823826519818555,-0.237930567617202
2,2,4,49,-1,0,1.613,-1,1,-0.586131780659438,1,1,1,1,-0.570385795527541,0.823826519818555
2,2,4,50,1,0,1.802,-1,-1,-0.98170172088606,1,1,-1,1,-0.586131780659438,-0.570385795527541
2,2,4,51,-1,0,1.638,1,-1,-0.375775967506781,-1,1,-1,-1,-0.98170172088606,-0.586131780659438
2,2,4,52,-1,0,1.497,-1,-1,-0.89759399007906,-1,-1,1,-1,-0.375775967506781,-0.98170172088606
2,2,4,53,1,1,1.343,-1,-1,-1.38983634254322,-1,-1,-1,1,-0.89759399007906,-0.375775967506781
2,2,4,54,-1,0,1.646,1,1,-1.98348966805552,-1,-1,-1,-1,-1.38983634254322,-0.89759399007906
2,2,4,55,-1,0,2.238,-1,-1,-0.870950444765296,1,-1,1,-1,-1.98348966805552,-1.38983634254322
2,2,4,56,1,1,1.521,-1,-1,0.809185073701182,-1,1,-1,1,-0.870950444765296,-1.98348966805552
2,2,4,57,1,1,2.005,1,1,-1.30285913160077,-1,-1,-1,-1,0.809185073701182,-0.870950444765296
2,2,4,58,-1,0,1.552,1,1,0.207977668107503,1,-1,1,-1,-1.30285913160077,0.809185073701182
2,2,4,59,-1,0,1.866,-1,-1,-1.19252289108599,1,1,1,1,0.207977668107503,-1.30285913160077
2,2,4,60,1,0,1.314,-1,-1,-0.184922945560408,-1,1,-1,1,-1.19252289108599,0.207977668107503
2,2,4,61,-1,0,1.823,1,-1,-2.10286868708016,-1,-1,-1,-1,-0.184922945560408,-1.19252289108599
2,2,4,62,-1,0,1.74,-1,-1,-0.312415195795779,-1,-1,1,-1,-2.10286868708016,-0.184922945560408
2,2,4,63,1,0,2.177,-1,-1,-0.567242031797319,-1,-1,-1,1,-0.312415195795779,-2.10286868708016
2,2,4,64,-1,0,1.472,1,-1,0.658061894805706,-1,-1,-1,-1,-0.567242031797319,-0.312415195795779
2,2,4,65,-1,0,1.636,-1,-1,-1.4819331109551,-1,-1,1,-1,0.658061894805706,-0.567242031797319
2,2,4,66,1,1,1.652,-1,-1,-0.904275208818639,-1,-1,-1,1,-1.4819331109551,0.658061894805706
2,2,4,67,1,0,1.97,1,1,-0.851052629514532,-1,-1,-1,-1,-0.904275208818639,-1.4819331109551
2,2,4,68,-1,0,2.042,1,-1,0.111673196866054,1,-1,1,-1,-0.851052629514532,-0.904275208818639
2,2,4,69,1,0,1.937,-1,-1,0.307974199662476,-1,1,1,1,0.111673196866054,-0.851052629514532
2,2,4,70,-1,0,1.925,1,-1,0.0192916621892686,-1,-1,-1,1,0.307974199662476,0.111673196866054
2,2,4,71,-1,1,2.622,-1,-1,-0.0146923530816181,-1,-1,1,-1,0.0192916621892686,0.307974199662476
2,2,4,72,-1,0,1.68,-1,1,1.67516033410883,-1,-1,-1,1,-0.0146923530816181,0.0192916621892686
2,2,4,73,-1,0,1.696,-1,-1,-0.75914161123796,1,-1,-1,-1,1.67516033410883,-0.0146923530816181
2,2,4,74,-1,0,2.112,-1,-1,-0.70730637140414,-1,1,-1,-1,-0.75914161123796,1.67516033410883
2,2,4,75,-1,0,1.542,-1,-1,0.492296115921196,-1,-1,-1,-1,-0.70730637140414,-0.75914161123796
2,2,4,76,1,0,2.354,-1,-1,-1.22787257369898,-1,-1,-1,-1,0.492296115921196,-0.70730637140414
2,2,4,77,-1,0,1.992,1,-1,1.08553084975206,-1,-1,-1,-1,-1.22787257369898,0.492296115921196
2,2,4,78,-1,0,1.547,-1,-1,0.17240511377461,-1,-1,1,-1,1.08553084975206,-1.22787257369898
2,2,4,79,1,0,1.739,-1,-1,-1.21016916925079,-1,-1,-1,1,0.17240511377461,1.08553084975206
2,2,5,0,1,0,1.472,1,-1,-0.570385795527541,-1,-1,-1,-1,-1.21016916925079,0.17240511377461
2,2,5,1,-1,0,1.702,1,-1,-0.964111328961843,-1,-1,1,-1,-0.570385795527541,-1.21016916925079
2,2,5,2,-1,0,1.691,-1,-1,-0.0339942686327194,-1,-1,1,1,-0.964111328961843,-0.570385795527541
2,2,5,3,1,1,1.756,-1,-1,-0.0755341401311645,-1,-1,-1,1,-0.0339942686327194,-0.964111328961843
2,2,5,4,-1,0,1.889,1,1,0.166111163543743,-1,-1,-1,-1,-0.0755341401311645,-0.0339942686327194
2,2,5,5,-1,0,1.405,-1,-1,0.633848201460643,1,-1,1,-1,0.166111163543743,-0.0755341401311645
2,2,5,6,1,1,1.509,-1,-1,-1.26255905374043,-1,1,-1,1,0.633848201460643,0.166111163543743
2,2,5,7,-1,0,2.062,1,1,-0.805067488877481,-1,-1,-1,-1,-1.26255905374043,0.633848201460643
2,2,5,8,1,1,1.83,-1,-1,1.19524722895202,1,-1,1,-1,-0.805067488877481,-1.26255905374043
2,2,5,9,1,1,1.454,1,1,0.430557706342771,-1,1,-1,1,1.19524722895202,-0.805067488877481
2,2,5,10,-1,0,1.374,1,1,-1.04293532783214,1,-1,1,-1,0.430557706342771,1.19524722895202
2,2,5,11,1,1,1.511,-1,-1,-1.40549648190078,1,1,1,1,-1.04293532783214,0.430557706342771
2,2,5,12,1,1,1.315,1,1,-0.796581979497331,-1,1,-1,1,-1.40549648190078,-1.04293532783214
2,2,5,13,1,1,1.623,1,1,-1.68667731804457,1,-1,1,-1,-0.796581979497331,-1.40549648190078
2,2,5,14,1,1,1.658,1,1,-0.338483532597603,1,1,1,1,-1.68667731804457,-0.796581979497331
2,2,5,15,-1,0,2.09,1,1,-0.20179468250313,1,1,1,1,-0.338483532597603,-1.68667731804457
2,2,5,16,-1,1,2.015,-1,-1,1.28165684430971,1,1,1,1,-0.20179468250313,-0.338483532597603
2,2,5,17,-1,0,1.911,-1,1,1.0475299877619,-1,1,-1,1,1.28165684430971,-0.20179468250313
2,2,5,18,1,0,1.777,-1,-1,0.708030235647382,1,-1,-1,-1,1.0475299877619,1.28165684430971
2,2,5,19,-1,0,1.839,1,-1,0.242272678415802,-1,1,-1,-1,0.708030235647382,1.0475299877619
2,2,5,20,1,0,1.83,-1,-1,0.461988147038636,-1,-1,1,-1,0.242272678415802,0.708030235647382
2,2,5,21,1,1,1.809,1,-1,0.430557706342771,-1,-1,-1,1,0.461988147038636,0.242272678415802
2,2,5,22,1,0,2.541,1,1,0.356614741211391,-1,-1,1,-1,0.430557706342771,0.461988147038636
2,2,5,23,1,1,1.886,1,-1,2.53345764741395,1,-1,1,1,0.356614741211391,0.430557706342771
2,2,5,24,-1,0,2.154,1,1,0.623665589549469,-1,1,1,1,2.53345764741395,0.356614741211391
2,2,5,25,-1,0,2.152,-1,-1,1.4748947511838,1,-1,1,1,0.623665589549469,2.53345764741395
2,2,5,26,1,1,1.628,-1,-1,1.46894346543729,-1,1,-1,1,1.4748947511838,0.623665589549469
2,2,5,27,-1,1,2.232,1,1,-0.318777092435176,-1,-1,-1,-1,1.46894346543729,1.4748947511838
2,2,5,28,1,0,1.685,-1,1,1.7027854328382,1,-1,1,-1,-0.318777092435176,1.46894346543729
2,2,5,29,-1,0,1.438,1,-1,-0.098306291993964,1,1,-1,1,1.7027854328382,-0.318777092435176
2,2,5,30,1,1,1.74,-1,-1,-1.11382466682937,-1,1,1,-1,-0.098306291993964,1.7027854328382
2,2,5,31,-1,0,1.791,1,1,0.107469485043356,-1,-1,-1,1,-1.11382466682937,-0.098306291993964
2,2,5,32,1,0,1.657,-1,-1,0.292548620869268,1,-1,1,-1,0.107469485043356,-1.11382466682937
2,2,5,33,-1,0,1.671,1,-1,-0.205659876373266,-1,1,-1,1,0.292548620869268,0.107469485043356
2,2,5,34,-1,0,1.718,-1,-1,-0.151758223656232,-1,-1,1,-1,-0.205659876373266,0.292548620869268
2,2,5,35,-1,0,1.759,-1,-1,0.0259505770871967,-1,-1,-1,1,-0.151758223656232,-0.205659876373266
2,2,5,36,-1,0,1.721,-1,-1,0.177046970430254,-1,-1,-1,-1,0.0259505770871967,-0.151758223656232
2,2,5,37,1,0,1.268,-1,-1,0.0371280593853002,-1,-1,-1,-1,0.177046970430254,0.0259505770871967
2,2,5,38,-1,0,1.224,1,-1,-1.91984920678875,-1,-1,-1,-1,0.0371280593853002,0.177046970430254
2,2,5,39,1,1,1.504,-1,-1,-2.14610753663678,-1,-1,1,-1,-1.91984920678875,0.0371280593853002
2,2,5,40,1,0,1.614,1,1,-0.826330563973242,-1,-1,-1,1,-2.14610753663678,-1.91984920678875
2,2,5,41,-1,0,1.605,1,-1,-0.374108602961813,1,-1,1,-1,-0.826330563973242,-2.14610753663678
2,2,5,42,1,1,1.732,-1,-1,-0.409932882583272,-1,1,1,1,-0.374108602961813,-0.826330563973242
2,2,5,43,-1,0,1.661,1,1,0.0779461210657698,-1,-1,-1,1,-0.409932882583272,-0.374108602961813
2,2,5,44,-1,0,2.123,-1,-1,-0.190213072879447,1,-1,1,-1,0.0779461210657698,-0.409932882583272
2,2,5,45,1,1,1.931,-1,-1,1.38202273997874,-1,1,-1,1,-0.190213072879447,0.0779461210657698
2,2,5,46,1,0,1.686,1,1,0.774731084327681,-1,-1,-1,-1,1.38202273997874,-0.190213072879447
2,2,5,47,1,0,2.516,1,-1,-0.0945053078151755,1,-1,1,-1,0.774731084327681,1.38202273997874
2,2,5,48,-1,0,1.594,1,-1,2.47011366049054,-1,1,1,1,-0.0945053078151755,0.774731084327681
2,2,5,49,-1,0,1.1,-1,-1,-0.453991915312887,-1,-1,1,1,2.47011366049054,-0.0945053078151755
2,2,5,50,-1,0,1.638,-1,-1,-2.83041771924626,-1,-1,-1,1,-0.453991915312887,2.47011366049054
2,2,5,51,1,1,1.868,-1,-1,-0.279545134897739,-1,-1,-1,-1,-2.83041771924626,-0.453991915312887
2,2,5,52,1,0,1.313,1,1,0.562227688970825,-1,-1,-1,-1,-0.279545134897739,-2.83041771924626
2,2,5,53,1,0,1.66,1,-1,-1.69642855074208,1,-1,1,-1,0.562227688970825,-0.279545134897739
2,2,5,54,-1,0,2.088,1,-1,-0.194071283562404,-1,1,1,1,-1.69642855074208,0.562227688970825
2,2,5,55,-1,0,1.662,-1,-1,1.27552323096861,-1,-1,1,1,-0.194071283562404,-1.69642855074208
2,2,5,56,1,1,1.921,-1,-1,-0.186357184321627,-1,-1,-1,1,1.27552323096861,-0.194071283562404
2,2,5,57,-1,0,1.702,1,1,0.741467465232108,-1,-1,-1,-1,-0.186357184321627,1.27552323096861
2,2,5,58,-1,0,1.773,-1,-1,-0.0339942686327194,1,-1,1,-1,0.741467465232108,-0.186357184321627
2,2,5,59,-1,0,1.452,-1,-1,0.227835357048686,-1,1,-1,1,-0.0339942686327194,0.741467465232108
2,2,5,60,1,1,1.328,-1,-1,-1.05175371689881,-1,-1,-1,-1,0.227835357048686,-0.0339942686327194
2,2,5,61,-1,1,1.807,1,1,-1.6236535314048,-1,-1,-1,-1,-1.05175371689881,0.227835357048686
2,2,5,62,1,1,1.787,-1,1,0.349527839332283,1,-1,1,-1,-1.6236535314048,-1.05175371689881
2,2,5,63,-1,0,1.829,1,1,0.278224280311661,1,1,-1,1,0.349527839332283,-1.6236535314048
2,2,5,64,1,0,2.536,-1,-1,0.427055897758497,1,1,1,-1,0.278224280311661,0.349527839332283
2,2,5,65,1,1,1.722,1,-1,2.52083885537799,-1,1,-1,1,0.427055897758497,0.278224280311661
2,2,5,66,-1,1,1.562,1,1,0.040849557396088,-1,-1,1,-1,2.52083885537799,0.427055897758497
2,2,5,67,-1,0,1.571,-1,1,-0.583913906836,1,-1,1,1,0.040849557396088,2.52083885537799
2,2,5,68,1,1,1.464,-1,-1,-0.547106255120593,1,1,-1,1,-0.583913906836,0.040849557396088
2,2,5,69,1,1,1.509,1,1,-0.999024541499621,-1,1,-1,-1,-0.547106255120593,-0.583913906836
2,2,5,70,1,1,1.83,1,1,-0.805067488877481,1,-1,1,-1,-0.999024541499621,-0.547106255120593
2,2,5,71,-1,0,1.852,1,1,0.430557706342771,1,1,1,1,-0.805067488877481,-0.999024541499621
2,2,5,72,1,1,1.741,-1,-1,0.507117167238628,1,1,1,1,0.430557706342771,-0.805067488877481
2,2,5,73,-1,0,1.602,1,1,0.11115035767861,-1,1,-1,1,0.507117167238628,0.430557706342771
2,2,5,74,1,0,1.742,-1,-1,-0.421918963994236,1,-1,1,-1,0.11115035767861,0.507117167238628
2,2,5,75,-1,0,1.604,1,-1,0.114829116691792,-1,1,-1,1,-0.421918963994236,0.11115035767861
2,2,5,76,1,0,1.734,-1,-1,-0.413925751921259,-1,-1,1,-1,0.114829116691792,-0.421918963994236
2,2,5,77,-1,0,2.105,1,-1,0.085339726785889,-1,-1,-1,1,-0.413925751921259,0.114829116691792
2,2,5,78,-1,0,1.768,-1,-1,1.32747271522298,-1,-1,1,-1,0.085339726785889,-0.413925751921259
2,2,5,79,1,1,1.527,-1,-1,0.209742832611265,-1,-1,-1,1,1.32747271522298,0.085339726785889
2,2,6,0,1,0,1.526,1,1,-0.729099500182118,-1,-1,-1,-1,0.209742832611265,1.32747271522298
2,2,6,1,1,1,1.558,1,-1,-1.2096367256908,1,-1,1,-1,-0.729099500182118,0.209742832611265
2,2,6,2,-1,0,1.412,1,1,-1.09233488450876,-1,1,1,1,-1.2096367256908,-0.729099500182118
2,2,6,3,1,1,1.345,-1,-1,-1.64849550586258,1,-1,1,1,-1.09233488450876,-1.2096367256908
2,2,6,4,1,0,1.859,1,1,-1.9232704868046,-1,1,-1,1,-1.64849550586258,-1.09233488450876
2,2,6,5,-1,0,1.751,1,-1,-0.0939401726540822,1,-1,1,-1,-1.9232704868046,-1.64849550586258
2,2,6,6,-1,0,2.185,-1,-1,-0.432238464268333,-1,1,1,1,-0.0939401726540822,-1.9232704868046
2,2,6,7,-1,0,2.018,-1,-1,0.819338887002058,-1,-1,-1,1,-0.432238464268333,-0.0939401726540822
2,2,6,8,-1,0,1.858,-1,-1,0.369932315360923,-1,-1,-1,-1,0.819338887002058,-0.432238464268333
2,2,6,9,-1,0,2.189,-1,-1,-0.0969814854040864,-1,-1,-1,-1,0.369932315360923,0.819338887002058
2,2,6,10,1,0,1.861,-1,-1,0.829676849846471,-1,-1,-1,-1,-0.0969814854040864,0.369932315360923
2,2,6,11,1,1,1.142,1,-1,-0.0878624520582627,-1,-1,-1,-1,0.829676849846471,-0.0969814854040864
2,2,6,12,-1,0,2.093,1,1,-2.8480563556151,-1,-1,1,-1,-0.0878624520582627,0.829676849846471
2,2,6,13,1,1,1.921,-1,-1,0.576192598438903,1,-1,1,1,-2.8480563556151,-0.0878624520582627
2,2,6,14,-1,0,2.156,1,1,0.0914951539104663,-1,1,-1,1,0.576192598438903,-2.8480563556151
2,2,6,15,1,0,1.746,-1,-1,0.743817787159733,1,-1,1,-1,0.0914951539104663,0.576192598438903
2,2,6,16,-1,0,2.213,1,-1,-0.448401699787941,-1,1,-1,1,0.743817787159733,0.0914951539104663
2,2,6,17,-1,0,2.276,-1,-1,0.891310677545735,-1,-1,1,-1,-0.448401699787941,0.743817787159733
2,2,6,18,-1,0,2.043,-1,-1,1.04997273907518,-1,-1,-1,1,0.891310677545735,-0.448401699787941
2,2,6,19,1,1,1.619,-1,-1,0.43952540836919,-1,-1,-1,-1,1.04997273907518,0.891310677545735
2,2,6,20,1,1,1.622,1,1,-0.875254975502319,-1,-1,-1,-1,0.43952540836919,1.04997273907518
2,2,6,21,1,0,1.887,1,1,-0.864791017667408,1,-1,1,-1,-0.875254975502319,0.43952540836919
2,2,6,22,1,0,1.839,1,-1,-0.00944109279409123,1,1,1,1,-0.864791017667408,-0.875254975502319
2,2,6,23,-1,0,2.257,1,-1,-0.155079542261939,-1,1,1,1,-0.00944109279409123,-0.864791017667408
2,2,6,24,1,0,2.605,-1,-1,1.00258957494454,-1,-1,1,1,-0.155079542261939,-0.00944109279409123
2,2,6,25,-1,0,1.952,1,-1,1.81310486437485,-1,-1,-1,1,1.00258957494454,-0.155079542261939
2,2,6,26,-1,0,2.549,-1,-1,0.181980261032234,-1,-1,1,-1,1.81310486437485,1.00258957494454
2,2,6,27,-1,0,2.006,-1,-1,1.690272068493,-1,-1,-1,1,0.181980261032234,1.81310486437485
2,2,6,28,1,1,1.926,-1,-1,0.336220806227065,-1,-1,-1,-1,1.690272068493,0.181980261032234
2,2,6,29,1,1,2.64,1,1,0.106187856775645,-1,-1,-1,-1,0.336220806227065,1.690272068493
2,2,6,30,1,0,1.858,1,1,1.88854155562883,1,-1,1,-1,0.106187856775645,0.336220806227065
2,2,6,31,-1,0,1.346,1,-1,-0.0969814854040864,1,1,1,1,1.88854155562883,0.106187856775645
2,2,6,32,-1,0,1.795,-1,-1,-1.91906960990404,-1,1,1,1,-0.0969814854040864,1.88854155562883
2,2,6,33,-1,0,2.07,-1,-1,-0.291960366194533,-1,-1,-1,1,-1.91906960990404,-0.0969814854040864
2,2,6,34,-1,1,2.667,-1,-1,0.513735834673,-1,-1,-1,-1,-0.291960366194533,-1.91906960990404
2,2,6,35,-1,0,1.705,-1,1,1.94605535483878,-1,-1,-1,-1,0.513735834673,-0.291960366194533
2,2,6,36,1,0,1.174,-1,-1,-0.582713127412416,1,-1,-1,-1,1.94605535483878,0.513735834673
2,2,6,37,-1,0,1.559,1,-1,-2.69185215974294,-1,1,-1,-1,-0.582713127412416,1.94605535483878
2,2,6,38,1,0,2.343,-1,-1,-1.0887081409711,-1,-1,1,-1,-2.69185215974294,-0.582713127412416
2,2,6,39,1,1,2.399,1,-1,1.21396031100068,-1,-1,-1,1,-1.0887081409711,-2.69185215974294
2,2,6,40,-1,1,2.224,1,1,1.34746616245217,-1,-1,1,-1,1.21396031100068,-1.0887081409711
2,2,6,41,1,0,1.739,-1,1,0.919336462123253,1,-1,1,1,1.34746616245217,1.21396031100068
2,2,6,42,1,1,2.163,1,-1,-0.471108162041279,1,1,-1,1,0.919336462123253,1.34746616245217
2,2,6,43,-1,0,1.979,1,1,0.762139617171687,-1,1,1,-1,-0.471108162041279,0.919336462123253
2,2,6,44,1,1,2.728,-1,-1,0.259626635692165,1,-1,1,1,0.762139617171687,-0.471108162041279
2,2,6,45,1,1,1.562,1,1,2.0738788025708,-1,1,-1,1,0.259626635692165,0.762139617171687
2,2,6,46,-1,0,1.592,1,1,-1.07784185192846,1,-1,1,-1,2.0738788025708,0.259626635692165
2,2,6,47,1,0,2.103,-1,-1,-0.970312681128451,1,1,1,1,-1.07784185192846,2.0738788025708
2,2,6,48,1,0,2.102,1,-1,0.603133924991451,-1,1,-1,1,-0.970312681128451,-1.07784185192846
2,2,6,49,1,0,1.412,1,-1,0.60044556365206,-1,-1,1,-1,0.603133924991451,-0.970312681128451
2,2,6,50,1,1,1.831,1,-1,-1.64849550586258,-1,-1,1,1,0.60044556365206,0.603133924991451
2,2,6,51,1,1,2.068,1,1,-0.179721672233213,-1,-1,1,1,-1.64849550586258,0.60044556365206
2,2,6,52,1,1,2.099,1,1,0.508272055021338,1,-1,1,1,-0.179721672233213,-1.64849550586258
2,2,6,53,-1,0,1.826,1,1,0.592372799209792,1,1,1,1,0.508272055021338,-0.179721672233213
2,2,6,54,-1,0,1.947,-1,-1,-0.195177737673582,1,1,1,1,0.592372799209792,0.508272055021338
2,2,6,55,1,0,1.499,-1,-1,0.167483511332553,-1,1,-1,1,-0.195177737673582,0.592372799209792
2,2,6,56,1,1,1.498,1,-1,-1.31053960326848,-1,-1,-1,-1,0.167483511332553,-0.195177737673582
2,2,6,57,1,1,2.164,1,1,-1.31431156177317,-1,-1,1,-1,-1.31053960326848,0.167483511332553
2,2,6,58,-1,0,1.585,1,1,0.764752180014371,1,-1,1,1,-1.31431156177317,-1.31053960326848
2,2,6,59,1,1,1.744,-1,-1,-0.995220469163469,1,1,1,1,0.764752180014371,-1.31431156177317
2,2,6,60,1,1,1.862,1,1,-0.454879957929212,-1,1,-1,1,-0.995220469163469,0.764752180014371
2,2,6,61,-1,0,1.948,1,1,-0.0848260406989043,1,-1,1,-1,-0.454879957929212,-0.995220469163469
2,2,6,62,-1,0,1.92,-1,-1,0.170385837254865,1,1,1,1,-0.0848260406989043,-0.454879957929212
2,2,6,63,-1,0,1.799,-1,-1,0.0885520246539075,-1,1,-1,1,0.170385837254865,-0.0848260406989043
2,2,6,64,-1,0,2.034,-1,-1,-0.279378770327356,-1,-1,-1,-1,0.0885520246539075,0.170385837254865
2,2,6,65,-1,0,1.859,-1,-1,0.414570490970165,-1,-1,-1,-1,-0.279378770327356,0.0885520246539075
2,2,6,66,1,0,1.918,-1,-1,-0.0939401726540822,-1,-1,-1,-1,0.414570490970165,-0.279378770327356
2,2,6,67,1,1,2.045,1,-1,0.0826611647048301,-1,-1,-1,-1,-0.0939401726540822,0.414570490970165
2,2,6,68,-1,0,1.824,1,1,0.445056015081985,-1,-1,1,-1,0.0826611647048301,-0.0939401726540822
2,2,6,69,-1,0,1.772,-1,-1,-0.201372017317639,1,-1,1,1,0.445056015081985,0.0826611647048301
2,2,6,70,1,0,1.803,-1,-1,-0.36485312355485,-1,1,-1,1,-0.201372017317639,0.445056015081985
2,2,6,71,-1,0,1.74,1,-1,-0.266825118060894,-1,-1,-1,-1,-0.36485312355485,-0.201372017317639
2,2,6,72,1,1,1.525,-1,-1,-0.467858791667505,-1,-1,1,-1,-0.266825118060894,-0.36485312355485
2,2,6,73,-1,0,1.768,1,1,-1.21334192386315,-1,-1,-1,1,-0.467858791667505,-0.266825118060894
2,2,6,74,-1,0,2.219,-1,-1,-0.377626642232982,1,-1,1,-1,-1.21334192386315,-0.467858791667505
2,2,6,75,1,1,1.926,-1,-1,0.906614693058156,-1,1,-1,1,-0.377626642232982,-1.21334192386315
2,2,6,76,-1,0,2.305,1,1,0.106187856775645,-1,-1,-1,-1,0.906614693058156,-0.377626642232982
2,2,6,77,1,1,1.825,-1,-1,1.12153715661897,1,-1,1,-1,0.106187856775645,0.906614693058156
2,2,6,78,-1,0,2.251,1,1,-0.19827402896411,-1,1,-1,1,1.12153715661897,0.106187856775645
2,2,6,79,-1,0,2.336,-1,-1,0.987543568874071,1,-1,1,-1,-0.19827402896411,1.12153715661897
2,2,7,0,1,1,1.829,-1,-1,1.19704815593127,-1,1,-1,1,0.987543568874071,-0.19827402896411
2,2,7,1,1,1,1.798,1,1,0.515248629462041,-1,-1,-1,-1,1.19704815593127,0.987543568874071
