subj_idx,session,block,trial,stimulus,coherence,response,rt,prevstim,prevresp,prev2resp,prev2stim,prev3resp,prev3stim,prevrt
1,1,1,4,-27,27,0,0.483788013458252,-1,1,-1,-1,1,1,0.367121934890747
1,1,1,5,9,9,1,0.484246015548706,-1,-1,1,-1,-1,-1,0.233788013458252
1,1,1,6,3,3,1,0.533806562423706,1,1,-1,-1,1,-1,0.234246015548706
1,1,1,7,27,27,1,0.3504638671875,1,1,1,1,-1,-1,0.283806562423706
1,1,1,8,27,27,1,0.500915050506592,1,1,1,1,1,1,0.1004638671875
1,1,1,9,0,0,0,0.56714391708374,1,1,1,1,1,1,0.250915050506592
1,1,1,10,-81,81,0,0.483842849731445,1,-1,1,1,1,1,0.31714391708374
1,1,1,11,-3,3,0,1.06712794303894,-1,-1,-1,1,1,1,0.233842849731445
1,1,1,12,-27,27,0,0.567131280899048,-1,-1,-1,-1,-1,1,0.81712794303894
1,1,1,13,-3,3,0,1.08377909660339,-1,-1,-1,-1,-1,-1,0.317131280899048
1,1,1,14,-3,3,0,0.417197942733765,-1,-1,-1,-1,-1,-1,0.833779096603394
1,1,1,15,-3,3,0,0.533799648284912,-1,-1,-1,-1,-1,-1,0.167197942733765
1,1,1,16,-9,9,0,0.483818054199219,-1,-1,-1,-1,-1,-1,0.283799648284912
1,1,1,17,-3,3,0,0.400465250015259,-1,-1,-1,-1,-1,-1,0.233818054199219
1,1,1,18,-27,27,0,0.417136192321777,-1,-1,-1,-1,-1,-1,0.150465250015259
1,1,1,19,-27,27,0,0.300492286682129,-1,-1,-1,-1,-1,-1,0.167136192321777
1,1,1,20,-9,9,1,0.600461006164551,-1,-1,-1,-1,-1,-1,0.0504922866821289
1,1,1,21,0,0,0,0.383825063705444,-1,1,-1,-1,-1,-1,0.350461006164551
1,1,1,22,81,81,1,0.250938892364502,1,-1,1,-1,-1,-1,0.133825063705444
1,1,1,23,81,81,1,0.500928163528442,1,1,-1,1,1,-1,0.000938892364501953
1,1,1,24,-27,27,0,0.367132902145386,1,1,1,1,-1,1,0.250928163528442
1,1,1,25,-9,9,1,0.51712703704834,-1,-1,1,1,1,1,0.117132902145386
1,1,1,26,-9,9,0,0.517589092254639,-1,1,-1,-1,1,1,0.26712703704834
1,1,1,27,-81,81,0,0.434244871139526,-1,-1,1,-1,-1,-1,0.267589092254639
1,1,1,28,9,9,1,1.35045289993286,-1,-1,-1,-1,1,-1,0.184244871139526
1,1,1,29,81,81,1,0.600468158721924,1,1,-1,-1,-1,-1,1.10045289993286
1,1,1,30,-81,81,0,0.567663908004761,1,1,1,1,-1,-1,0.350468158721924
1,1,1,31,-81,81,0,0.417601823806763,-1,-1,1,1,1,1,0.317663908004761
1,1,1,32,-3,3,1,0.533793926239014,-1,-1,-1,-1,1,1,0.167601823806763
1,1,1,33,-9,9,0,0.567129850387573,-1,1,-1,-1,-1,-1,0.283793926239014
1,1,1,34,27,27,1,0.483822822570801,-1,-1,1,-1,-1,-1,0.317129850387573
1,1,1,35,-81,81,0,0.567143201828003,1,1,-1,-1,1,-1,0.233822822570801
1,1,1,36,-3,3,1,0.500908851623535,-1,-1,1,1,-1,-1,0.317143201828003
1,1,1,37,9,9,1,0.617125272750854,-1,1,-1,-1,1,1,0.250908851623535
1,1,1,38,9,9,0,0.96759295463562,1,1,1,-1,-1,-1,0.367125272750854
1,1,1,39,9,9,0,0.567598819732666,1,-1,1,1,1,-1,0.71759295463562
1,1,1,40,9,9,1,0.567162990570068,1,-1,-1,1,1,1,0.317598819732666
1,1,1,41,9,9,1,0.550472259521484,1,1,-1,1,-1,1,0.317162990570068
1,1,1,42,-3,3,1,0.617129564285278,1,1,1,1,-1,1,0.300472259521484
1,1,1,43,-27,27,0,0.467599868774414,-1,1,1,1,1,1,0.367129564285278
1,1,1,44,-9,9,0,0.43379282951355,-1,-1,1,-1,1,1,0.217599868774414
1,1,1,45,0,0,1,0.433807611465454,-1,-1,-1,-1,1,-1,0.18379282951355
1,1,1,46,0,0,0,0.884245634078979,1,1,-1,-1,-1,-1,0.183807611465454
1,1,1,47,3,3,0,0.667146921157837,1,-1,1,1,-1,-1,0.634245634078979
1,1,1,48,-9,9,0,0.333804130554199,1,-1,-1,1,1,1,0.417146921157837
1,1,1,49,-81,81,0,0.467162609100342,-1,-1,-1,1,-1,1,0.0838041305541992
1,1,1,50,27,27,1,0.367644071578979,-1,-1,-1,-1,-1,1,0.217162609100342
1,1,1,51,-27,27,0,0.41713809967041,1,1,-1,-1,-1,-1,0.117644071578979
1,1,1,52,-3,3,1,0.633799076080322,-1,-1,1,1,-1,-1,0.16713809967041
1,1,1,53,-81,81,0,0.567128896713257,-1,1,-1,-1,1,1,0.383799076080322
1,1,1,54,-27,27,0,0.667126178741455,-1,-1,1,-1,-1,-1,0.317128896713257
1,1,1,55,-3,3,0,0.617149353027344,-1,-1,-1,-1,1,-1,0.417126178741455
1,1,1,56,81,81,1,0.467120885848999,-1,-1,-1,-1,-1,-1,0.367149353027344
1,1,1,57,27,27,1,0.434247493743896,1,1,-1,-1,-1,-1,0.217120885848999
1,1,1,58,-0,0,0,0.300467014312744,1,1,1,1,-1,-1,0.184247493743896
1,1,1,59,0,0,1,0.868026733398438,-1,-1,1,1,1,1,0.0504670143127441
1,1,1,60,3,3,1,0.567131996154785,1,1,-1,-1,1,1,0.618026733398438
1,1,1,61,81,81,1,0.284255027770996,1,1,1,1,-1,-1,0.317131996154785
1,1,1,62,-0,0,0,0.433897256851196,1,1,1,1,1,1,0.0342550277709961
1,1,1,63,-27,27,0,0.350495100021362,-1,-1,1,1,1,1,0.183897256851196
1,1,1,64,3,3,1,0.667139768600464,-1,-1,-1,-1,1,1,0.100495100021362
1,1,1,65,9,9,0,0.283795833587646,1,1,-1,-1,-1,-1,0.417139768600464
1,1,1,66,9,9,1,0.550455093383789,1,-1,1,1,-1,-1,0.0337958335876465
1,1,1,67,27,27,1,0.300489902496338,1,1,-1,1,1,1,0.300455093383789
1,1,1,68,81,81,1,0.367614507675171,1,1,1,1,-1,1,0.0504899024963379
1,1,1,69,9,9,1,0.484289169311523,1,1,1,1,1,1,0.117614507675171
1,1,1,70,-0,0,1,0.350554943084717,1,1,1,1,1,1,0.234289169311523
1,1,1,71,27,27,1,0.500450134277344,-1,1,1,1,1,1,0.100554943084717
1,1,1,72,81,81,1,0.417589902877808,1,1,1,-1,1,1,0.250450134277344
1,1,1,73,3,3,0,0.517136812210083,1,1,1,1,1,-1,0.167589902877808
1,1,1,74,-27,27,0,0.533804416656494,1,-1,1,1,1,1,0.267136812210083
1,1,1,75,3,3,0,1.3337869644165,-1,-1,-1,1,1,1,0.283804416656494
1,1,1,76,81,81,1,0.484248876571655,1,-1,-1,-1,-1,1,1.0837869644165
1,1,1,77,-0,0,1,0.60045599937439,1,1,-1,1,-1,-1,0.234248876571655
1,1,1,78,27,27,1,0.400949954986572,-1,1,1,1,-1,1,0.35045599937439
1,1,1,79,-9,9,0,0.400459051132202,1,1,1,-1,1,1,0.150949954986572
1,1,1,80,-81,81,0,0.350472927093506,-1,-1,1,1,1,-1,0.150459051132202
1,1,1,81,9,9,1,0.434262990951538,-1,-1,-1,-1,1,1,0.100472927093506
1,1,1,82,3,3,1,0.783785820007324,1,1,-1,-1,-1,-1,0.184262990951538
1,1,1,83,-27,27,0,0.38385796546936,1,1,1,1,-1,-1,0.533785820007324
1,1,1,84,27,27,1,0.617124795913696,-1,-1,1,1,1,1,0.13385796546936
1,1,1,85,-81,81,0,0.317598819732666,1,1,-1,-1,1,1,0.367124795913696
1,1,1,86,-27,27,0,0.484220266342163,-1,-1,1,1,-1,-1,0.067598819732666
1,1,1,87,81,81,1,0.333822965621948,-1,-1,-1,-1,1,1,0.234220266342163
1,1,1,88,81,81,1,0.933784961700439,1,1,-1,-1,-1,-1,0.0838229656219482
1,1,1,89,-3,3,0,0.467132568359375,1,1,1,1,-1,-1,0.683784961700439
1,1,1,90,-0,0,0,0.367131948471069,-1,-1,1,1,1,1,0.217132568359375
1,1,1,91,0,0,1,0.467149019241333,-1,-1,-1,-1,1,1,0.117131948471069
1,1,1,92,-9,9,1,0.384259939193726,1,1,-1,-1,-1,-1,0.217149019241333
1,1,1,93,-3,3,0,0.333802938461304,-1,1,1,1,-1,-1,0.134259939193726
1,1,1,94,-27,27,0,0.284235954284668,-1,-1,1,-1,1,1,0.0838029384613037
1,1,1,95,81,81,1,0.467652559280396,-1,-1,-1,-1,1,-1,0.034235954284668
1,1,1,96,-9,9,1,0.300950527191162,1,1,-1,-1,-1,-1,0.217652559280396
1,1,1,97,-3,3,1,0.683783054351807,-1,1,1,1,-1,-1,0.0509505271911621
1,1,1,98,-81,81,0,0.333835601806641,-1,1,1,-1,1,1,0.433783054351807
1,1,1,99,-9,9,0,0.483809471130371,-1,-1,1,-1,1,-1,0.0838356018066406
1,1,2,4,0,0,1,0.468309164047241,-1,-1,-1,-1,-1,-1,0.133810997009277
1,1,2,5,0,0,0,0.500936031341553,1,1,-1,-1,-1,-1,0.218309164047241
1,1,2,6,3,3,0,0.817128419876099,1,-1,1,1,-1,-1,0.250936031341553
1,1,2,7,27,27,1,0.400946140289307,1,-1,-1,1,1,1,0.567128419876099
1,1,2,8,-27,27,0,0.567569255828857,1,1,-1,1,-1,1,0.150946140289307
1,1,2,9,9,9,1,0.41716194152832,-1,-1,1,1,-1,1,0.317569255828857
1,1,2,10,-9,9,0,0.717120409011841,1,1,-1,-1,1,1,0.16716194152832
1,1,2,11,0,0,1,0.800441980361938,-1,-1,1,1,-1,-1,0.467120409011841
1,1,2,12,-9,9,1,0.367642879486084,1,1,-1,-1,1,1,0.550441980361938
1,1,2,13,27,27,1,0.483781099319458,-1,1,1,1,-1,-1,0.117642879486084
1,1,2,14,81,81,1,0.383795976638794,1,1,1,-1,1,1,0.233781099319458
1,1,2,15,81,81,1,0.517127990722656,1,1,1,1,1,-1,0.133795976638794
1,1,2,16,-3,3,0,0.800899982452393,1,1,1,1,1,1,0.267127990722656
1,1,2,17,27,27,1,0.400518894195557,-1,-1,1,1,1,1,0.550899982452393
1,1,2,18,81,81,1,0.800498008728027,1,1,-1,-1,1,1,0.150518894195557
1,1,2,19,-81,81,0,0.46712327003479,1,1,1,1,-1,-1,0.550498008728027
1,1,2,20,-81,81,0,0.483790159225464,-1,-1,1,1,1,1,0.21712327003479
1,1,2,21,-27,27,0,0.517158985137939,-1,-1,-1,-1,1,1,0.233790159225464
1,1,2,22,-9,9,0,0.550915956497192,-1,-1,-1,-1,-1,-1,0.267158985137939
1,1,2,23,9,9,1,0.417146682739258,-1,-1,-1,-1,-1,-1,0.300915956497192
1,1,2,24,-81,81,0,0.567113161087036,1,1,-1,-1,-1,-1,0.167146682739258
1,1,2,25,3,3,1,0.800930023193359,-1,-1,1,1,-1,-1,0.317113161087036
1,1,2,26,-3,3,1,0.617144823074341,1,1,-1,-1,1,1,0.550930023193359
1,1,2,27,0,0,0,0.667128324508667,-1,1,1,1,-1,-1,0.367144823074341
1,1,2,28,9,9,1,0.433802843093872,1,-1,1,-1,1,1,0.417128324508667
1,1,2,29,27,27,1,0.450453042984009,1,1,-1,1,1,-1,0.183802843093872
1,1,2,30,-3,3,1,0.66711950302124,1,1,1,1,-1,1,0.200453042984009
1,1,2,31,27,27,1,0.433846950531006,-1,1,1,1,1,1,0.41711950302124
1,1,2,32,-9,9,0,0.433861017227173,1,1,1,-1,1,1,0.183846950531006
1,1,2,33,0,0,0,0.617583036422729,-1,-1,1,1,1,-1,0.183861017227173
1,1,2,34,-0,0,1,0.584409952163696,1,-1,-1,-1,1,1,0.367583036422729
1,1,2,35,-0,0,0,0.650909900665283,-1,1,-1,1,-1,-1,0.334409952163696
1,1,2,36,9,9,1,0.400454044342041,-1,-1,1,-1,-1,1,0.400909900665283
1,1,2,37,9,9,1,0.500449895858765,1,1,-1,-1,1,-1,0.150454044342041
1,1,2,38,81,81,1,0.367140769958496,1,1,1,1,-1,-1,0.250449895858765
1,1,2,39,9,9,1,0.534243822097778,1,1,1,1,1,1,0.117140769958496
1,1,2,40,-81,81,0,0.367604970932007,1,1,1,1,1,1,0.284243822097778
1,1,2,41,-3,3,1,0.717674255371094,-1,-1,1,1,1,1,0.117604970932007
1,1,2,42,27,27,1,0.583796977996826,-1,1,-1,-1,1,1,0.467674255371094
1,1,2,43,9,9,1,0.750915050506592,1,1,1,-1,-1,-1,0.333796977996826
1,1,2,44,81,81,1,0.600460290908813,1,1,1,1,1,-1,0.500915050506592
1,1,2,45,81,81,1,0.517149925231934,1,1,1,1,1,1,0.350460290908813
1,1,2,46,-81,81,0,0.567588090896606,1,1,1,1,1,1,0.267149925231934
1,1,2,47,-27,27,0,0.450450897216797,-1,-1,1,1,1,1,0.317588090896606
1,1,2,48,-3,3,0,0.767589569091797,-1,-1,-1,-1,1,1,0.200450897216797
1,1,2,49,-27,27,0,0.500483989715576,-1,-1,-1,-1,-1,-1,0.517589569091797
1,1,2,50,3,3,1,0.584247827529907,-1,-1,-1,-1,-1,-1,0.250483989715576
1,1,2,51,81,81,1,0.467582702636719,1,1,-1,-1,-1,-1,0.334247827529907
1,1,2,52,-27,27,0,0.500463962554932,1,1,1,1,-1,-1,0.217582702636719
1,1,2,53,9,9,1,0.484251022338867,-1,-1,1,1,1,1,0.250463962554932
1,1,2,54,-81,81,0,0.483790874481201,1,1,-1,-1,1,1,0.234251022338867
1,1,2,55,-3,3,1,0.850454092025757,-1,-1,1,1,-1,-1,0.233790874481201
1,1,2,56,9,9,1,0.350525617599487,-1,1,-1,-1,1,1,0.600454092025757
1,1,2,57,-3,3,1,0.567158937454224,1,1,1,-1,-1,-1,0.100525617599487
1,1,2,58,27,27,1,0.467119932174683,-1,1,1,1,1,-1,0.317158937454224
1,1,2,59,81,81,1,0.400460004806519,1,1,1,-1,1,1,0.217119932174683
1,1,2,60,-3,3,1,0.467194080352783,1,1,1,1,1,-1,0.150460004806519
1,1,2,61,-81,81,0,0.267145872116089,-1,1,1,1,1,1,0.217194080352783
1,1,2,62,0,0,0,0.617590665817261,-1,-1,1,-1,1,1,0.0171458721160889
1,1,2,63,3,3,0,0.633869886398315,1,-1,-1,-1,1,-1,0.367590665817261
1,1,2,64,-9,9,1,0.550448894500732,1,-1,-1,1,-1,-1,0.383869886398315
1,1,2,65,-9,9,0,0.384555101394653,-1,1,-1,1,-1,1,0.300448894500732
1,1,2,66,0,0,0,0.500455856323242,-1,-1,1,-1,-1,1,0.134555101394653
1,1,2,67,9,9,1,0.500915050506592,1,-1,-1,-1,1,-1,0.250455856323242
1,1,2,68,-3,3,0,0.484248876571655,1,1,-1,1,-1,-1,0.250915050506592
1,1,2,69,9,9,1,0.283797979354858,-1,-1,1,1,-1,1,0.234248876571655
1,1,2,70,0,0,1,1.0508987903595,1,1,-1,-1,1,1,0.0337979793548584
1,1,2,71,27,27,1,0.51758599281311,1,1,1,1,-1,-1,0.800898790359497
1,1,2,72,27,27,1,0.534251928329468,1,1,1,1,1,1,0.26758599281311
1,1,2,73,27,27,1,0.600495100021362,1,1,1,1,1,1,0.284251928329468
1,1,2,74,-9,9,0,0.550461292266846,1,1,1,1,1,1,0.350495100021362
1,1,2,75,-27,27,0,0.367216110229492,-1,-1,1,1,1,1,0.300461292266846
1,1,2,76,-9,9,0,0.400470972061157,-1,-1,-1,-1,1,1,0.117216110229492
1,1,2,77,27,27,1,0.367144584655762,-1,-1,-1,-1,-1,-1,0.150470972061157
1,1,2,78,-81,81,0,0.583822250366211,1,1,-1,-1,-1,-1,0.117144584655762
1,1,2,79,-27,27,0,0.500464916229248,-1,-1,1,1,-1,-1,0.333822250366211
1,1,2,80,3,3,0,0.634236812591553,-1,-1,-1,-1,1,1,0.250464916229248
1,1,2,81,-3,3,1,0.784516096115112,1,-1,-1,-1,-1,-1,0.384236812591553
1,1,2,82,3,3,1,0.700454711914062,-1,1,-1,1,-1,-1,0.534516096115112
1,1,2,83,81,81,1,0.350890159606934,1,1,1,-1,-1,1,0.450454711914062
1,1,2,84,-3,3,0,0.884238958358765,1,1,1,1,1,-1,0.100890159606934
1,1,2,85,81,81,1,0.467134237289429,-1,-1,1,1,1,1,0.634238958358765
1,1,2,86,-9,9,0,0.634236097335815,1,1,-1,-1,1,1,0.217134237289429
1,1,2,87,0,0,1,0.567134380340576,-1,-1,1,1,-1,-1,0.384236097335815
1,1,2,88,27,27,1,0.484267950057983,1,1,-1,-1,1,1,0.317134380340576
1,1,2,89,81,81,1,0.500468969345093,1,1,1,1,-1,-1,0.234267950057983
1,1,2,90,-81,81,0,0.300495862960815,1,1,1,1,1,1,0.250468969345093
1,1,2,91,-3,3,0,0.517129182815552,-1,-1,1,1,1,1,0.0504958629608154
1,1,2,92,-9,9,0,0.467143774032593,-1,-1,-1,-1,1,1,0.267129182815552
1,1,2,93,-3,3,1,0.767107009887695,-1,-1,-1,-1,-1,-1,0.217143774032593
1,1,2,94,81,81,1,0.267124891281128,-1,1,-1,-1,-1,-1,0.517107009887695
1,1,2,95,-81,81,0,0.383806943893433,1,1,1,-1,-1,-1,0.0171248912811279
1,1,2,96,-9,9,0,0.550492525100708,-1,-1,1,1,1,-1,0.133806943893433
1,1,2,97,3,3,1,0.850896596908569,-1,-1,-1,-1,1,1,0.300492525100708
1,1,2,98,-3,3,0,0.484248876571655,1,1,-1,-1,-1,-1,0.600896596908569
1,1,2,99,3,3,0,0.86757230758667,-1,-1,1,1,-1,-1,0.234248876571655
1,1,3,4,-3,3,1,0.768115043640137,-1,-1,-1,-1,-1,-1,0.267152070999146
1,1,3,5,-3,3,0,0.617116689682007,-1,1,-1,-1,-1,-1,0.518115043640137
1,1,3,6,3,3,1,0.617146015167236,-1,-1,1,-1,-1,-1,0.367116689682007
1,1,3,7,-3,3,0,0.417139053344727,1,1,-1,-1,1,-1,0.367146015167236
1,1,3,8,-81,81,0,0.450917959213257,-1,-1,1,1,-1,-1,0.167139053344727
1,1,3,9,3,3,1,0.467160940170288,-1,-1,-1,-1,1,1,0.200917959213257
1,1,3,10,9,9,1,0.433789968490601,1,1,-1,-1,-1,-1,0.217160940170288
1,1,3,11,9,9,1,0.900460958480835,1,1,1,1,-1,-1,0.183789968490601
1,1,3,12,3,3,1,0.883788585662842,1,1,1,1,1,1,0.650460958480835
1,1,3,13,27,27,1,0.333791017532349,1,1,1,1,1,1,0.633788585662842
1,1,3,14,-3,3,1,0.884232044219971,1,1,1,1,1,1,0.0837910175323486
1,1,3,15,9,9,1,0.500933408737183,-1,1,1,1,1,1,0.634232044219971
1,1,3,16,9,9,1,0.467137813568115,1,1,1,-1,1,1,0.250933408737183
1,1,3,17,9,9,1,0.584260940551758,1,1,1,1,1,-1,0.217137813568115
1,1,3,18,0,0,1,0.567181825637817,1,1,1,1,1,1,0.334260940551758
1,1,3,19,81,81,1,0.351433038711548,1,1,1,1,1,1,0.317181825637817
1,1,3,20,27,27,1,0.400520086288452,1,1,1,1,1,1,0.101433038711548
1,1,3,21,81,81,1,0.367630004882812,1,1,1,1,1,1,0.150520086288452
1,1,3,22,3,3,0,0.800911664962769,1,1,1,1,1,1,0.117630004882812
1,1,3,23,81,81,1,0.400466680526733,1,-1,1,1,1,1,0.550911664962769
1,1,3,24,9,9,1,0.400464773178101,1,1,-1,1,1,1,0.150466680526733
1,1,3,25,-81,81,0,0.600528955459595,1,1,1,1,-1,1,0.150464773178101
1,1,3,26,-81,81,0,0.483796834945679,-1,-1,1,1,1,1,0.350528955459595
1,1,3,27,-27,27,0,0.350471019744873,-1,-1,-1,-1,1,1,0.233796834945679
1,1,3,28,-27,27,0,0.417145967483521,-1,-1,-1,-1,-1,-1,0.100471019744873
1,1,3,29,9,9,0,0.467586994171143,-1,-1,-1,-1,-1,-1,0.167145967483521
1,1,3,30,81,81,1,0.367589950561523,1,-1,-1,-1,-1,-1,0.217586994171143
1,1,3,31,0,0,1,0.500913858413696,1,1,-1,1,-1,-1,0.117589950561523
1,1,3,32,3,3,1,0.650929689407349,1,1,1,1,-1,1,0.250913858413696
1,1,3,33,27,27,1,0.450494527816772,1,1,1,1,1,1,0.400929689407349
1,1,3,34,0,0,0,0.46822452545166,1,1,1,1,1,1,0.200494527816772
1,1,3,35,0,0,0,0.48380708694458,1,-1,1,1,1,1,0.21822452545166
1,1,3,36,81,81,1,0.434252023696899,1,-1,-1,1,1,1,0.23380708694458
1,1,3,37,27,27,1,0.517127990722656,1,1,-1,1,-1,1,0.184252023696899
1,1,3,38,81,81,1,0.467587232589722,1,1,1,1,-1,1,0.267127990722656
1,1,3,39,-3,3,0,0.584266901016235,1,1,1,1,1,1,0.217587232589722
1,1,3,40,-81,81,0,0.533790111541748,-1,-1,1,1,1,1,0.334266901016235
1,1,3,41,9,9,1,0.684268951416016,-1,-1,-1,-1,1,1,0.283790111541748
1,1,3,42,-0,0,1,0.633784770965576,1,1,-1,-1,-1,-1,0.434268951416016
1,1,3,43,-9,9,0,0.383824825286865,-1,1,1,1,-1,-1,0.383784770965576
1,1,3,44,-81,81,0,0.267138957977295,-1,-1,1,-1,1,1,0.133824825286865
1,1,3,45,-9,9,0,0.483803987503052,-1,-1,-1,-1,1,-1,0.0171389579772949
1,1,3,46,-27,27,0,0.4504714012146,-1,-1,-1,-1,-1,-1,0.233803987503052
1,1,3,47,-3,3,0,0.917135953903198,-1,-1,-1,-1,-1,-1,0.2004714012146
1,1,3,48,-9,9,0,0.434256553649902,-1,-1,-1,-1,-1,-1,0.667135953903198
1,1,3,49,-81,81,0,0.483800888061523,-1,-1,-1,-1,-1,-1,0.184256553649902
1,1,3,50,-0,0,1,0.500484943389893,-1,-1,-1,-1,-1,-1,0.233800888061523
1,1,3,51,-27,27,0,0.40052318572998,-1,1,-1,-1,-1,-1,0.250484943389893
1,1,3,52,9,9,1,0.417584896087646,-1,-1,1,-1,-1,-1,0.15052318572998
1,1,3,53,-3,3,1,0.484247922897339,1,1,-1,-1,1,-1,0.167584896087646
1,1,3,54,-9,9,0,0.65091609954834,-1,1,1,1,-1,-1,0.234247922897339
1,1,3,55,-9,9,0,0.383790969848633,-1,-1,1,-1,1,1,0.40091609954834
1,1,3,56,-27,27,0,0.484278917312622,-1,-1,-1,-1,1,-1,0.133790969848633
1,1,3,57,27,27,1,0.384530067443848,-1,-1,-1,-1,-1,-1,0.234278917312622
1,1,3,58,81,81,1,0.433841943740845,1,1,-1,-1,-1,-1,0.134530067443848
1,1,3,59,3,3,1,0.517611026763916,1,1,1,1,-1,-1,0.183841943740845
1,1,3,60,3,3,1,0.434256076812744,1,1,1,1,1,1,0.267611026763916
1,1,3,61,0,0,1,0.434226274490356,1,1,1,1,1,1,0.184256076812744
1,1,3,62,3,3,1,0.450484037399292,1,1,1,1,1,1,0.184226274490356
1,1,3,63,27,27,1,0.433799028396606,1,1,1,1,1,1,0.200484037399292
1,1,3,64,-0,0,0,0.533847093582153,1,1,1,1,1,1,0.183799028396606
1,1,3,65,-27,27,0,0.500463962554932,-1,-1,1,1,1,1,0.283847093582153
1,1,3,66,27,27,1,0.500488996505737,-1,-1,-1,-1,1,1,0.250463962554932
1,1,3,67,27,27,1,0.400932550430298,1,1,-1,-1,-1,-1,0.250488996505737
1,1,3,68,9,9,1,0.500488758087158,1,1,1,1,-1,-1,0.150932550430298
1,1,3,69,27,27,1,0.433799982070923,1,1,1,1,1,1,0.250488758087158
1,1,3,70,-27,27,0,0.434251070022583,1,1,1,1,1,1,0.183799982070923
1,1,3,71,27,27,1,0.367612600326538,-1,-1,1,1,1,1,0.184251070022583
1,1,3,72,-81,81,0,0.583796739578247,1,1,-1,-1,1,1,0.117612600326538
1,1,3,73,-81,81,0,0.400476932525635,-1,-1,1,1,-1,-1,0.333796739578247
1,1,3,74,-9,9,0,0.567116975784302,-1,-1,-1,-1,1,1,0.150476932525635
1,1,3,75,-3,3,0,0.500461101531982,-1,-1,-1,-1,-1,-1,0.317116975784302
1,1,3,76,-81,81,0,0.333791255950928,-1,-1,-1,-1,-1,-1,0.250461101531982
1,1,3,77,-9,9,0,0.383822917938232,-1,-1,-1,-1,-1,-1,0.0837912559509277
1,1,3,78,-3,3,0,0.550465106964111,-1,-1,-1,-1,-1,-1,0.133822917938232
1,1,3,79,-27,27,0,0.434255123138428,-1,-1,-1,-1,-1,-1,0.300465106964111
1,1,3,80,-9,9,0,0.600481033325195,-1,-1,-1,-1,-1,-1,0.184255123138428
1,1,3,81,81,81,1,0.400492906570435,-1,-1,-1,-1,-1,-1,0.350481033325195
1,1,3,82,9,9,1,0.633795499801636,1,1,-1,-1,-1,-1,0.150492906570435
1,1,3,83,-27,27,0,0.433808326721191,1,1,1,1,-1,-1,0.383795499801636
1,1,3,84,-27,27,0,0.483791589736938,-1,-1,1,1,1,1,0.183808326721191
1,1,3,85,-27,27,0,0.250940799713135,-1,-1,-1,-1,1,1,0.233791589736938
1,1,3,86,-9,9,1,0.650485992431641,-1,-1,-1,-1,-1,-1,0.000940799713134766
1,1,3,87,0,0,0,0.550489187240601,-1,1,-1,-1,-1,-1,0.400485992431641
1,1,3,88,-27,27,0,0.483822107315063,1,-1,1,-1,-1,-1,0.300489187240601
1,1,3,89,-9,9,0,0.467822074890137,-1,-1,-1,1,1,-1,0.233822107315063
1,1,3,90,-81,81,0,0.484284639358521,-1,-1,-1,-1,-1,1,0.217822074890137
1,1,3,91,81,81,1,0.400469779968262,-1,-1,-1,-1,-1,-1,0.234284639358521
1,1,3,92,3,3,1,0.717571973800659,1,1,-1,-1,-1,-1,0.150469779968262
1,1,3,93,81,81,1,0.433818817138672,1,1,1,1,-1,-1,0.467571973800659
1,1,3,94,-3,3,0,0.750937938690186,1,1,1,1,1,1,0.183818817138672
1,1,3,95,-3,3,0,0.467582941055298,-1,-1,1,1,1,1,0.500937938690186
1,1,3,96,-0,0,0,0.433820009231567,-1,-1,-1,-1,1,1,0.217582941055298
1,1,3,97,9,9,1,0.433806896209717,-1,-1,-1,-1,-1,-1,0.183820009231567
1,1,3,98,3,3,0,0.550915956497192,1,1,-1,-1,-1,-1,0.183806896209717
1,1,3,99,3,3,1,0.433801174163818,1,-1,1,1,-1,-1,0.300915956497192
1,1,4,9,9,9,1,0.583791017532349,-1,-1,-1,1,-1,-1,0.300481796264648
1,1,4,10,-27,27,0,0.500447988510132,1,1,-1,-1,-1,1,0.333791017532349
1,1,4,11,81,81,1,0.467129707336426,-1,-1,1,1,-1,-1,0.250447988510132
1,1,4,12,-0,0,0,0.650445938110352,1,1,-1,-1,1,1,0.217129707336426
1,1,4,13,0,0,0,0.650452613830566,-1,-1,1,1,-1,-1,0.400445938110352
1,1,4,14,-81,81,0,0.483798027038574,1,-1,-1,-1,1,1,0.400452613830566
1,1,4,15,81,81,1,0.500882148742676,-1,-1,-1,1,-1,-1,0.233798027038574
1,1,4,16,-9,9,0,0.267158031463623,1,1,-1,-1,-1,1,0.250882148742676
1,1,4,17,81,81,1,0.4671311378479,-1,-1,1,1,-1,-1,0.017158031463623
1,1,4,23,81,81,1,0.567108154296875,-1,-1,1,1,-1,-1,0.451720952987671
1,1,4,24,-27,27,0,0.484308004379272,1,1,-1,-1,1,1,0.317108154296875
1,1,4,25,9,9,1,0.533796072006226,-1,-1,1,1,-1,-1,0.234308004379272
1,1,4,26,-9,9,0,0.650516033172607,1,1,-1,-1,1,1,0.283796072006226
1,1,4,27,81,81,1,0.550935029983521,-1,-1,1,1,-1,-1,0.400516033172607
1,1,4,28,-3,3,0,0.583810806274414,1,1,-1,-1,1,1,0.300935029983521
1,1,4,29,-81,81,0,0.367131948471069,-1,-1,1,1,-1,-1,0.333810806274414
1,1,4,30,27,27,1,0.533824443817139,-1,-1,-1,-1,1,1,0.117131948471069
1,1,4,31,-81,81,0,0.484219074249268,1,1,-1,-1,-1,-1,0.283824443817139
1,1,4,32,-0,0,0,0.500483989715576,-1,-1,1,1,-1,-1,0.234219074249268
1,1,4,33,-27,27,0,0.433796882629395,-1,-1,-1,-1,1,1,0.250483989715576
1,1,4,34,3,3,0,0.583794832229614,-1,-1,-1,-1,-1,-1,0.183796882629395
1,1,4,35,-0,0,0,0.517148971557617,1,-1,-1,-1,-1,-1,0.333794832229614
1,1,4,36,81,81,1,0.333797931671143,-1,-1,-1,1,-1,-1,0.267148971557617
1,1,4,37,-81,81,0,0.667144775390625,1,1,-1,-1,-1,1,0.0837979316711426
1,1,4,38,9,9,1,0.517138957977295,-1,-1,1,1,-1,-1,0.417144775390625
1,1,4,39,-3,3,1,0.567129850387573,1,1,-1,-1,1,1,0.267138957977295
1,1,4,40,3,3,0,0.517131805419922,-1,1,1,1,-1,-1,0.317129850387573
1,1,4,41,-9,9,0,0.45052170753479,1,-1,1,-1,1,1,0.267131805419922
1,1,4,42,9,9,1,0.733792066574097,-1,-1,-1,1,1,-1,0.20052170753479
1,1,4,43,3,3,0,0.350924491882324,1,1,-1,-1,-1,1,0.483792066574097
1,1,4,44,-81,81,0,0.417115926742554,1,-1,1,1,-1,-1,0.100924491882324
1,1,4,45,3,3,1,0.783807992935181,-1,-1,-1,1,1,1,0.167115926742554
1,1,4,46,-3,3,0,0.56827449798584,1,1,-1,-1,-1,1,0.533807992935181
1,1,4,47,-9,9,0,0.400931596755981,-1,-1,1,1,-1,-1,0.31827449798584
1,1,4,48,-81,81,0,0.534254550933838,-1,-1,-1,-1,1,1,0.150931596755981
1,1,4,49,27,27,1,0.483790159225464,-1,-1,-1,-1,-1,-1,0.284254550933838
1,1,4,50,-81,81,0,0.433850765228271,1,1,-1,-1,-1,-1,0.233790159225464
1,1,4,51,9,9,1,0.600456953048706,-1,-1,1,1,-1,-1,0.183850765228271
1,1,4,52,-3,3,1,0.583783149719238,1,1,-1,-1,1,1,0.350456953048706
1,1,4,53,27,27,1,0.383815050125122,-1,1,1,1,-1,-1,0.333783149719238
1,1,4,54,-9,9,0,0.450946092605591,1,1,1,-1,1,1,0.133815050125122
1,1,4,55,3,3,0,0.433790445327759,-1,-1,1,1,1,-1,0.200946092605591
1,1,4,56,-27,27,0,0.351356983184814,1,-1,-1,-1,1,1,0.183790445327759
1,1,4,57,3,3,1,0.500478982925415,-1,-1,-1,1,-1,-1,0.101356983184814
1,1,4,58,-9,9,0,0.550997734069824,1,1,-1,-1,-1,1,0.250478982925415
1,1,4,59,27,27,1,0.367120265960693,-1,-1,1,1,-1,-1,0.300997734069824
1,1,4,60,-0,0,0,0.967628955841064,1,1,-1,-1,1,1,0.117120265960693
1,1,4,61,27,27,1,0.384273052215576,-1,-1,1,1,-1,-1,0.717628955841064
1,1,4,62,81,81,1,0.500482082366943,1,1,-1,-1,1,1,0.134273052215576
1,1,4,63,-27,27,0,0.367585897445679,1,1,1,1,-1,-1,0.250482082366943
1,1,4,64,-3,3,0,0.617128849029541,-1,-1,1,1,1,1,0.117585897445679
1,1,4,65,-27,27,0,0.467178106307983,-1,-1,-1,-1,1,1,0.367128849029541
1,1,4,66,9,9,1,0.517127752304077,-1,-1,-1,-1,-1,-1,0.217178106307983
1,1,4,67,0,0,1,0.501009941101074,1,1,-1,-1,-1,-1,0.267127752304077
1,1,4,68,-9,9,0,0.500516653060913,1,1,1,1,-1,-1,0.251009941101074
1,1,4,69,27,27,1,0.417136907577515,-1,-1,1,1,1,1,0.250516653060913
1,1,4,70,81,81,1,0.434276103973389,1,1,-1,-1,1,1,0.167136907577515
1,1,4,71,27,27,1,0.517581939697266,1,1,1,1,-1,-1,0.184276103973389
1,1,4,72,9,9,1,0.617177963256836,1,1,1,1,1,1,0.267581939697266
1,1,4,73,81,81,1,0.483788967132568,1,1,1,1,1,1,0.367177963256836
1,1,4,74,-27,27,0,0.467153072357178,1,1,1,1,1,1,0.233788967132568
1,1,4,75,-27,27,0,0.300464868545532,-1,-1,1,1,1,1,0.217153072357178
1,1,4,76,81,81,1,0.417119026184082,-1,-1,-1,-1,1,1,0.0504648685455322
1,1,4,77,27,27,1,0.450459003448486,1,1,-1,-1,-1,-1,0.167119026184082
1,1,4,78,3,3,0,0.617156505584717,1,1,1,1,-1,-1,0.200459003448486
1,1,4,79,-3,3,0,0.53382396697998,1,-1,1,1,1,1,0.367156505584717
1,1,4,80,3,3,0,0.650462865829468,-1,-1,-1,1,1,1,0.28382396697998
1,1,4,81,-3,3,0,0.467581987380981,1,-1,-1,-1,-1,1,0.400462865829468
1,1,4,82,9,9,1,0.500468969345093,-1,-1,-1,1,-1,-1,0.217581987380981
1,1,4,83,-3,3,0,0.434223890304565,1,1,-1,-1,-1,1,0.250468969345093
1,1,4,84,-27,27,0,0.450466632843018,-1,-1,1,1,-1,-1,0.184223890304565
1,1,4,85,81,81,1,0.350466966629028,-1,-1,-1,-1,1,1,0.200466632843018
1,1,4,86,9,9,0,0.850445032119751,1,1,-1,-1,-1,-1,0.100466966629028
1,1,4,87,-3,3,0,0.58425498008728,1,-1,1,1,-1,-1,0.600445032119751
1,1,4,88,0,0,0,0.618453979492188,-1,-1,-1,1,1,1,0.33425498008728
1,1,4,89,-3,3,0,0.567121982574463,1,-1,-1,-1,-1,1,0.368453979492188
1,1,4,90,27,27,1,0.367137908935547,-1,-1,-1,1,-1,-1,0.317121982574463
1,1,4,91,-3,3,1,0.650460958480835,1,1,-1,-1,-1,1,0.117137908935547
1,1,4,92,0,0,0,0.733793497085571,-1,1,1,1,-1,-1,0.400460958480835
1,1,4,93,81,81,1,0.367578029632568,1,-1,1,-1,1,1,0.483793497085571
1,1,4,94,-9,9,1,0.483849048614502,1,1,-1,1,1,-1,0.117578029632568
1,1,4,95,27,27,1,0.317661285400391,-1,1,1,1,-1,1,0.233849048614502
1,1,4,96,-81,81,0,0.500460863113403,1,1,1,-1,1,1,0.0676612854003906
1,1,4,97,0,0,1,0.633816957473755,-1,-1,1,1,1,-1,0.250460863113403
1,1,4,98,-81,81,0,0.500454664230347,1,1,-1,-1,1,1,0.383816957473755
1,1,4,99,27,27,1,0.43425726890564,-1,-1,1,1,-1,-1,0.250454664230347
1,1,5,4,-81,81,0,0.334252834320068,1,-1,1,1,-1,-1,0.333807945251465
1,1,5,5,-27,27,0,0.517128944396973,-1,-1,-1,1,1,1,0.0842528343200684
1,1,5,6,3,3,1,0.500471830368042,-1,-1,-1,-1,-1,1,0.267128944396973
1,1,5,7,-27,27,0,0.500480890274048,1,1,-1,-1,-1,-1,0.250471830368042
1,1,5,8,81,81,1,0.367679119110107,-1,-1,1,1,-1,-1,0.250480890274048
1,1,5,9,-81,81,0,0.434249877929688,1,1,-1,-1,1,1,0.117679119110107
1,1,5,10,81,81,1,0.350470066070557,-1,-1,1,1,-1,-1,0.184249877929688
1,1,5,11,-9,9,0,0.600450038909912,1,1,-1,-1,1,1,0.100470066070557
1,1,5,12,27,27,1,0.483794927597046,-1,-1,1,1,-1,-1,0.350450038909912
1,1,5,13,-27,27,0,0.383802175521851,1,1,-1,-1,1,1,0.233794927597046
1,1,5,14,9,9,1,0.467628955841064,-1,-1,1,1,-1,-1,0.133802175521851
1,1,5,15,-9,9,0,0.600452184677124,1,1,-1,-1,1,1,0.217628955841064
1,1,5,16,27,27,1,0.500468969345093,-1,-1,1,1,-1,-1,0.350452184677124
1,1,5,17,81,81,1,0.384269952774048,1,1,-1,-1,1,1,0.250468969345093
1,1,5,18,-9,9,0,0.450464963912964,1,1,1,1,-1,-1,0.134269952774048
1,1,5,19,9,9,1,0.333799123764038,-1,-1,1,1,1,1,0.200464963912964
1,1,5,20,-9,9,0,0.417129993438721,1,1,-1,-1,1,1,0.0837991237640381
1,1,5,21,3,3,1,0.633778095245361,-1,-1,1,1,-1,-1,0.167129993438721
1,1,5,22,-3,3,1,0.433803081512451,1,1,-1,-1,1,1,0.383778095245361
1,1,5,23,27,27,1,0.3675856590271,-1,1,1,1,-1,-1,0.183803081512451
1,1,5,24,-9,9,0,0.650952577590942,1,1,1,-1,1,1,0.1175856590271
1,1,5,25,81,81,1,0.467156887054443,-1,-1,1,1,1,-1,0.400952577590942
1,1,5,26,-27,27,0,0.334271907806396,1,1,-1,-1,1,1,0.217156887054443
1,1,5,27,0,0,1,0.433784008026123,-1,-1,1,1,-1,-1,0.0842719078063965
1,1,5,28,-81,81,0,0.500916957855225,1,1,-1,-1,1,1,0.183784008026123
1,1,5,29,9,9,1,0.450452089309692,-1,-1,1,1,-1,-1,0.250916957855225
1,1,5,30,-9,9,1,0.917567491531372,1,1,-1,-1,1,1,0.200452089309692
1,1,5,31,0,0,1,0.583786249160767,-1,1,1,1,-1,-1,0.667567491531372
1,1,5,32,9,9,1,0.400923013687134,1,1,1,-1,1,1,0.333786249160767
1,1,5,33,-3,3,1,0.517128944396973,1,1,1,1,1,-1,0.150923013687134
1,1,5,34,3,3,1,0.717154741287231,-1,1,1,1,1,1,0.267128944396973
1,1,5,35,-27,27,0,0.534243822097778,1,1,1,-1,1,1,0.467154741287231
1,1,5,36,81,81,1,0.500454187393188,-1,-1,1,1,1,-1,0.284243822097778
1,1,5,37,-81,81,0,0.450513124465942,1,1,-1,-1,1,1,0.250454187393188
1,1,5,38,9,9,1,0.53426194190979,-1,-1,1,1,-1,-1,0.200513124465942
1,1,5,39,3,3,0,0.567157983779907,1,1,-1,-1,1,1,0.28426194190979
1,1,5,40,-9,9,0,0.400471925735474,1,-1,1,1,-1,-1,0.317157983779907
1,1,5,41,3,3,1,0.367171049118042,-1,-1,-1,1,1,1,0.150471925735474
1,1,5,42,-27,27,0,0.367565870285034,1,1,-1,-1,-1,1,0.117171049118042
1,1,5,43,-27,27,0,0.33425498008728,-1,-1,1,1,-1,-1,0.117565870285034
1,1,5,44,3,3,1,0.450906991958618,-1,-1,-1,-1,1,1,0.0842549800872803
1,1,5,45,-3,3,0,0.483797788619995,1,1,-1,-1,-1,-1,0.200906991958618
1,1,5,46,27,27,1,0.433799982070923,-1,-1,1,1,-1,-1,0.233797788619995
1,1,5,47,-27,27,0,0.383816242218018,1,1,-1,-1,1,1,0.183799982070923
1,1,5,48,81,81,1,0.367625713348389,-1,-1,1,1,-1,-1,0.133816242218018
1,1,5,49,27,27,1,0.550879001617432,1,1,-1,-1,1,1,0.117625713348389
1,1,5,50,-3,3,1,0.450887203216553,1,1,1,1,-1,-1,0.300879001617432
1,1,5,51,81,81,1,0.38425087928772,-1,1,1,1,1,1,0.200887203216553
1,1,5,52,-81,81,0,0.517159938812256,1,1,1,-1,1,1,0.13425087928772
1,1,5,53,3,3,1,0.650460004806519,-1,-1,1,1,1,-1,0.267159938812256
1,1,5,54,3,3,0,0.735116958618164,1,1,-1,-1,1,1,0.400460004806519
1,1,5,55,27,27,1,0.483818054199219,1,-1,1,1,-1,-1,0.485116958618164
1,1,5,56,27,27,1,0.400525093078613,1,1,-1,1,1,1,0.233818054199219
1,1,5,57,3,3,1,0.634255170822144,1,1,1,1,-1,1,0.150525093078613
1,1,5,58,-27,27,0,0.500464916229248,1,1,1,1,1,1,0.384255170822144
1,1,5,59,0,0,1,0.667604207992554,-1,-1,1,1,1,1,0.250464916229248
1,1,5,60,3,3,1,0.783808946609497,1,1,-1,-1,1,1,0.417604207992554
1,1,5,61,-81,81,0,0.434276103973389,1,1,1,1,-1,-1,0.533808946609497
1,1,5,62,0,0,0,0.600457906723022,-1,-1,1,1,1,1,0.184276103973389
1,1,5,63,-81,81,0,0.450460195541382,1,-1,-1,-1,1,1,0.350457906723022
1,1,5,64,0,0,0,0.784265041351318,-1,-1,-1,1,-1,-1,0.200460195541382
1,1,5,65,-9,9,0,0.517129898071289,1,-1,-1,-1,-1,1,0.534265041351318
1,1,5,66,0,0,1,0.43425178527832,-1,-1,-1,1,-1,-1,0.267129898071289
1,1,5,67,-81,81,0,0.483821153640747,1,1,-1,-1,-1,1,0.18425178527832
1,1,5,68,-27,27,0,0.384269714355469,-1,-1,1,1,-1,-1,0.233821153640747
1,1,5,69,81,81,1,0.367141008377075,-1,-1,-1,-1,1,1,0.134269714355469
1,1,5,70,-0,0,0,0.883800983428955,1,1,-1,-1,-1,-1,0.117141008377075
1,1,5,71,3,3,0,0.73426342010498,-1,-1,1,1,-1,-1,0.633800983428955
1,1,5,72,-0,0,1,0.600910902023315,1,-1,-1,-1,1,1,0.48426342010498
1,1,5,73,9,9,1,0.450936079025269,-1,1,-1,1,-1,-1,0.350910902023315
1,1,5,74,-0,0,1,0.767576932907104,1,1,1,-1,-1,1,0.200936079025269
1,1,5,75,81,81,1,0.500463962554932,-1,1,1,1,1,-1,0.517576932907104
1,1,5,76,-81,81,0,0.534631967544556,1,1,1,-1,1,1,0.250463962554932
1,1,5,77,-9,9,0,0.617575883865356,-1,-1,1,1,1,-1,0.284631967544556
1,1,5,78,9,9,1,0.617120027542114,-1,-1,-1,-1,1,1,0.367575883865356
1,1,5,79,-81,81,0,0.48380184173584,1,1,-1,-1,-1,-1,0.367120027542114
1,1,5,80,-27,27,0,0.483794927597046,-1,-1,1,1,-1,-1,0.23380184173584
1,1,5,81,-27,27,0,0.367145299911499,-1,-1,-1,-1,1,1,0.233794927597046
1,1,5,82,9,9,1,0.50088906288147,-1,-1,-1,-1,-1,-1,0.117145299911499
1,1,5,83,-9,9,0,0.483799934387207,1,1,-1,-1,-1,-1,0.25088906288147
1,1,5,84,27,27,1,0.318473815917969,-1,-1,1,1,-1,-1,0.233799934387207
1,1,5,85,81,81,1,0.300932168960571,1,1,-1,-1,1,1,0.0684738159179688
1,1,5,86,-81,81,0,0.434612035751343,1,1,1,1,-1,-1,0.0509321689605713
1,1,5,87,9,9,1,0.517129182815552,-1,-1,1,1,1,1,0.184612035751343
1,1,5,88,-3,3,0,0.450468063354492,1,1,-1,-1,1,1,0.267129182815552
1,1,5,89,3,3,1,0.500470876693726,-1,-1,1,1,-1,-1,0.200468063354492
1,1,5,94,-9,9,0,0.56712818145752,1,1,1,-1,-1,-1,0.401199102401733
1,1,5,95,27,27,1,0.500463962554932,-1,-1,1,1,1,-1,0.31712818145752
1,1,5,96,-3,3,0,0.667604446411133,1,1,-1,-1,1,1,0.250463962554932
1,1,5,97,3,3,1,0.65092396736145,-1,-1,1,1,-1,-1,0.417604446411133
1,1,5,98,-9,9,0,0.50091814994812,1,1,-1,-1,1,1,0.40092396736145
1,1,5,99,0,0,0,0.817130327224731,-1,-1,1,1,-1,-1,0.25091814994812
1,1,6,4,81,81,1,0.484246253967285,1,1,1,1,1,1,0.0509343147277832
1,1,6,5,3,3,1,0.450916051864624,1,1,1,1,1,1,0.234246253967285
1,1,6,6,27,27,1,0.250936031341553,1,1,1,1,1,1,0.200916051864624
1,1,6,7,3,3,0,0.750441074371338,1,1,1,1,1,1,0.000936031341552734
1,1,6,8,0,0,1,0.434240102767944,1,-1,1,1,1,1,0.500441074371338
1,1,6,9,0,0,1,0.467148780822754,1,1,-1,1,1,1,0.184240102767944
1,1,6,10,81,81,1,0.434246063232422,1,1,1,1,-1,1,0.217148780822754
1,1,6,11,81,81,1,0.484246015548706,1,1,1,1,1,1,0.184246063232422
1,1,6,12,3,3,1,0.617727994918823,1,1,1,1,1,1,0.234246015548706
1,1,6,13,-27,27,0,0.417582273483276,1,1,1,1,1,1,0.367727994918823
1,1,6,14,-27,27,0,0.417582988739014,-1,-1,1,1,1,1,0.167582273483276
1,1,6,15,-9,9,0,0.550457954406738,-1,-1,-1,-1,1,1,0.167582988739014
1,1,6,16,81,81,1,0.367157697677612,-1,-1,-1,-1,-1,-1,0.300457954406738
1,1,6,17,9,9,1,0.433797836303711,1,1,-1,-1,-1,-1,0.117157697677612
1,1,6,18,3,3,0,0.867122173309326,1,1,1,1,-1,-1,0.183797836303711
1,1,6,19,-27,27,0,0.367141962051392,1,-1,1,1,1,1,0.617122173309326
1,1,6,20,9,9,1,0.50091814994812,-1,-1,-1,1,1,1,0.117141962051392
1,1,6,21,81,81,1,0.48380184173584,1,1,-1,-1,-1,1,0.25091814994812
1,1,6,22,3,3,1,0.783787965774536,1,1,1,1,-1,-1,0.23380184173584
1,1,6,23,9,9,1,0.317132949829102,1,1,1,1,1,1,0.533787965774536
1,1,6,24,0,0,1,0.450475215911865,1,1,1,1,1,1,0.0671329498291016
1,1,6,25,0,0,1,0.550912857055664,1,1,1,1,1,1,0.200475215911865
1,1,6,26,27,27,1,0.417598247528076,1,1,1,1,1,1,0.300912857055664
1,1,6,27,9,9,1,0.417147159576416,1,1,1,1,1,1,0.167598247528076
1,1,6,28,81,81,1,0.417695999145508,1,1,1,1,1,1,0.167147159576416
1,1,6,29,9,9,1,0.583783149719238,1,1,1,1,1,1,0.167695999145508
1,1,6,30,81,81,1,0.483835935592651,1,1,1,1,1,1,0.333783149719238
1,1,6,31,0,0,1,0.450917959213257,1,1,1,1,1,1,0.233835935592651
1,1,6,32,-3,3,0,0.583796977996826,1,1,1,1,1,1,0.200917959213257
1,1,6,33,-27,27,0,0.317140340805054,-1,-1,1,1,1,1,0.333796977996826
1,1,6,34,-27,27,0,0.567122936248779,-1,-1,-1,-1,1,1,0.0671403408050537
1,1,6,35,-27,27,0,0.450916051864624,-1,-1,-1,-1,-1,-1,0.317122936248779
1,1,6,36,-81,81,0,0.483797073364258,-1,-1,-1,-1,-1,-1,0.200916051864624
1,1,6,37,-9,9,0,0.334409952163696,-1,-1,-1,-1,-1,-1,0.233797073364258
1,1,6,38,-81,81,0,0.534250020980835,-1,-1,-1,-1,-1,-1,0.0844099521636963
1,1,6,44,-81,81,0,0.500465869903564,1,1,-1,-1,-1,-1,0.217578887939453
1,1,6,45,-9,9,0,0.53383994102478,-1,-1,1,1,-1,-1,0.250465869903564
1,1,6,46,-81,81,0,0.467577934265137,-1,-1,-1,-1,1,1,0.28383994102478
1,1,6,47,-27,27,0,0.467175722122192,-1,-1,-1,-1,-1,-1,0.217577934265137
1,1,6,48,-3,3,0,0.800457715988159,-1,-1,-1,-1,-1,-1,0.217175722122192
1,1,6,49,-3,3,0,0.617577791213989,-1,-1,-1,-1,-1,-1,0.550457715988159
1,1,6,50,-3,3,0,0.550881862640381,-1,-1,-1,-1,-1,-1,0.367577791213989
1,1,6,51,-27,27,0,0.450473070144653,-1,-1,-1,-1,-1,-1,0.300881862640381
1,1,6,52,-9,9,0,0.617593050003052,-1,-1,-1,-1,-1,-1,0.200473070144653
1,1,6,53,-0,0,0,0.683773040771484,-1,-1,-1,-1,-1,-1,0.367593050003052
1,1,6,54,-3,3,0,0.517617225646973,-1,-1,-1,-1,-1,-1,0.433773040771484
1,1,6,55,-27,27,0,0.417151927947998,-1,-1,-1,-1,-1,-1,0.267617225646973
1,1,6,56,27,27,1,0.367150068283081,-1,-1,-1,-1,-1,-1,0.167151927947998
1,1,6,57,3,3,1,0.850460052490234,1,1,-1,-1,-1,-1,0.117150068283081
1,1,6,58,-27,27,0,0.433796882629395,1,1,1,1,-1,-1,0.600460052490234
1,1,6,59,-27,27,0,0.417585849761963,-1,-1,1,1,1,1,0.183796882629395
1,1,6,60,-9,9,0,0.483827114105225,-1,-1,-1,-1,1,1,0.167585849761963
1,1,6,61,81,81,1,0.450495004653931,-1,-1,-1,-1,-1,-1,0.233827114105225
1,1,6,62,-3,3,0,0.583785772323608,1,1,-1,-1,-1,-1,0.200495004653931
1,1,6,63,-9,9,0,0.517117977142334,-1,-1,1,1,-1,-1,0.333785772323608
1,1,6,64,-0,0,0,0.30047607421875,-1,-1,-1,-1,1,1,0.267117977142334
1,1,6,65,9,9,0,0.434245109558105,-1,-1,-1,-1,-1,-1,0.05047607421875
1,1,6,66,3,3,0,0.450914144515991,1,-1,-1,-1,-1,-1,0.184245109558105
1,1,6,67,3,3,1,0.401280164718628,1,-1,-1,1,-1,-1,0.200914144515991
1,1,6,68,-81,81,0,0.383824110031128,1,1,-1,1,-1,1,0.151280164718628
1,1,6,69,-3,3,1,0.433798789978027,-1,-1,1,1,-1,1,0.133824110031128
1,1,6,70,-9,9,0,0.533805131912231,-1,1,-1,-1,1,1,0.183798789978027
1,1,6,71,-3,3,0,0.550463914871216,-1,-1,1,-1,-1,-1,0.283805131912231
1,1,6,72,-27,27,0,0.417129039764404,-1,-1,-1,-1,1,-1,0.300463914871216
1,1,6,73,27,27,1,0.350910186767578,-1,-1,-1,-1,-1,-1,0.167129039764404
1,1,6,74,81,81,1,0.534223079681396,1,1,-1,-1,-1,-1,0.100910186767578
1,1,6,75,3,3,0,0.867136001586914,1,1,1,1,-1,-1,0.284223079681396
1,1,6,76,27,27,1,0.417114019393921,1,-1,1,1,1,1,0.617136001586914
1,1,6,77,9,9,1,0.417142391204834,1,1,-1,1,1,1,0.167114019393921
1,1,6,78,9,9,1,0.434255838394165,1,1,1,1,-1,1,0.167142391204834
1,1,6,79,-0,0,1,0.450928926467896,1,1,1,1,1,1,0.184255838394165
1,1,6,80,-9,9,0,0.583782196044922,-1,1,1,1,1,1,0.200928926467896
1,1,6,81,-3,3,0,0.500488996505737,-1,-1,1,-1,1,1,0.333782196044922
1,1,6,82,-27,27,0,0.484262943267822,-1,-1,-1,-1,1,-1,0.250488996505737
1,1,6,83,-9,9,0,0.433799743652344,-1,-1,-1,-1,-1,-1,0.234262943267822
1,1,6,84,3,3,0,0.817148447036743,-1,-1,-1,-1,-1,-1,0.183799743652344
1,1,6,85,-81,81,0,0.36712908744812,1,-1,-1,-1,-1,-1,0.567148447036743
1,1,6,86,-81,81,0,0.533796072006226,-1,-1,-1,1,-1,-1,0.11712908744812
1,1,6,87,9,9,1,0.733808994293213,-1,-1,-1,-1,-1,1,0.283796072006226
1,1,6,88,9,9,1,0.517123937606812,1,1,-1,-1,-1,-1,0.483808994293213
1,1,6,89,0,0,1,0.450448989868164,1,1,1,1,-1,-1,0.267123937606812
1,1,6,90,81,81,1,0.267191886901855,1,1,1,1,1,1,0.200448989868164
1,1,6,91,81,81,1,0.26720118522644,1,1,1,1,1,1,0.0171918869018555
1,1,6,92,3,3,1,0.583785533905029,1,1,1,1,1,1,0.0172011852264404
1,1,6,93,0,0,1,0.617125988006592,1,1,1,1,1,1,0.333785533905029
1,1,6,94,-3,3,1,0.450919151306152,1,1,1,1,1,1,0.367125988006592
1,1,6,95,-9,9,0,0.767107009887695,-1,1,1,1,1,1,0.200919151306152
1,1,6,96,-81,81,0,0.533787965774536,-1,-1,1,-1,1,1,0.517107009887695
1,1,6,97,-3,3,1,0.501093149185181,-1,-1,-1,-1,1,-1,0.283787965774536
1,1,6,98,-27,27,0,0.350940942764282,-1,1,-1,-1,-1,-1,0.251093149185181
1,1,6,99,-81,81,0,0.350965976715088,-1,-1,1,-1,-1,-1,0.100940942764282
1,2,1,4,0,0,1,0.56715989112854,-1,-1,1,1,-1,-1,0.217126131057739
1,2,1,5,-27,27,0,0.483795166015625,1,1,-1,-1,1,1,0.31715989112854
1,2,1,6,3,3,0,0.65089750289917,-1,-1,1,1,-1,-1,0.233795166015625
1,2,1,7,-3,3,1,0.567600011825562,1,-1,-1,-1,1,1,0.40089750289917
1,2,1,8,9,9,1,0.867157936096191,-1,1,-1,1,-1,-1,0.317600011825562
1,2,1,9,-27,27,0,0.367592811584473,1,1,1,-1,-1,1,0.617157936096191
1,2,1,10,3,3,1,0.650924682617188,-1,-1,1,1,1,-1,0.117592811584473
1,2,1,11,-81,81,0,0.433838367462158,1,1,-1,-1,1,1,0.400924682617188
1,2,1,12,27,27,1,0.467162609100342,-1,-1,1,1,-1,-1,0.183838367462158
1,2,1,13,-9,9,0,0.467119216918945,1,1,-1,-1,1,1,0.217162609100342
1,2,1,14,3,3,1,0.767156600952148,-1,-1,1,1,-1,-1,0.217119216918945
1,2,1,15,-81,81,0,0.467154979705811,1,1,-1,-1,1,1,0.517156600952148
1,2,1,16,27,27,1,0.333827018737793,-1,-1,1,1,-1,-1,0.217154979705811
1,2,1,17,0,0,1,0.80047607421875,1,1,-1,-1,1,1,0.083827018737793
1,2,1,18,-27,27,0,0.800883054733276,1,1,1,1,-1,-1,0.55047607421875
1,2,1,19,-0,0,1,0.583817005157471,-1,-1,1,1,1,1,0.550883054733276
1,2,1,20,3,3,1,0.784253597259521,-1,1,-1,-1,1,1,0.333817005157471
1,2,1,21,-81,81,0,0.400936841964722,1,1,1,-1,-1,-1,0.534253597259521
1,2,1,22,27,27,1,0.650952816009521,-1,-1,1,1,1,-1,0.150936841964722
1,2,1,27,81,81,1,0.467159986495972,-1,-1,1,1,1,-1,0.183827638626099
1,2,1,28,-3,3,0,0.500488996505737,1,1,-1,-1,1,1,0.217159986495972
1,2,1,29,-27,27,0,0.417625665664673,-1,-1,1,1,-1,-1,0.250488996505737
1,2,1,30,0,0,0,0.734218120574951,-1,-1,-1,-1,1,1,0.167625665664673
1,2,1,31,-0,0,1,0.600922107696533,1,-1,-1,-1,-1,-1,0.484218120574951
1,2,1,32,81,81,1,0.400490999221802,-1,1,-1,1,-1,-1,0.350922107696533
1,2,1,33,-0,0,1,0.500519275665283,1,1,1,-1,-1,1,0.150490999221802
1,2,1,34,-9,9,0,0.400502920150757,-1,1,1,1,1,-1,0.250519275665283
1,2,1,35,-3,3,1,0.517156600952148,-1,-1,1,-1,1,1,0.150502920150757
1,2,1,36,3,3,1,0.550493478775024,-1,1,-1,-1,1,-1,0.267156600952148
1,2,1,37,-3,3,0,0.66760516166687,1,1,1,-1,-1,-1,0.300493478775024
1,2,1,38,27,27,1,0.717108011245728,-1,-1,1,1,1,-1,0.41760516166687
1,2,1,39,-27,27,0,0.367563247680664,1,1,-1,-1,1,1,0.467108011245728
1,2,1,40,81,81,1,0.400474309921265,-1,-1,1,1,-1,-1,0.117563247680664
1,2,1,41,9,9,1,0.517173767089844,1,1,-1,-1,1,1,0.150474309921265
1,2,1,42,-27,27,0,0.567156791687012,1,1,1,1,-1,-1,0.267173767089844
1,2,1,43,-9,9,1,0.551831722259521,-1,-1,1,1,1,1,0.317156791687012
1,2,1,44,27,27,1,0.300901174545288,-1,1,-1,-1,1,1,0.301831722259521
1,2,1,45,-3,3,0,0.567596673965454,1,1,1,-1,-1,-1,0.0509011745452881
1,2,1,46,81,81,1,0.46715259552002,-1,-1,1,1,1,-1,0.317596673965454
1,2,1,47,-27,27,0,0.467168807983398,1,1,-1,-1,1,1,0.21715259552002
1,2,1,48,81,81,1,1.01716089248657,-1,-1,1,1,-1,-1,0.217168807983398
1,2,1,49,-9,9,0,0.434283018112183,1,1,-1,-1,1,1,0.767160892486572
1,2,1,50,27,27,1,0.383829116821289,-1,-1,1,1,-1,-1,0.184283018112183
1,2,1,51,-27,27,0,0.367582321166992,1,1,-1,-1,1,1,0.133829116821289
1,2,1,52,-9,9,0,0.467179536819458,-1,-1,1,1,-1,-1,0.117582321166992
1,2,1,53,27,27,1,0.500996112823486,-1,-1,-1,-1,1,1,0.217179536819458
1,2,1,54,-9,9,0,0.684618949890137,1,1,-1,-1,-1,-1,0.250996112823486
1,2,1,55,3,3,1,0.550894260406494,-1,-1,1,1,-1,-1,0.434618949890137
1,2,1,56,-9,9,0,0.500494956970215,1,1,-1,-1,1,1,0.300894260406494
1,2,1,57,9,9,1,0.450497627258301,-1,-1,1,1,-1,-1,0.250494956970215
1,2,1,58,9,9,1,0.484255075454712,1,1,-1,-1,1,1,0.200497627258301
1,2,1,59,-81,81,0,0.484259366989136,1,1,1,1,-1,-1,0.234255075454712
1,2,1,60,81,81,1,0.484264135360718,-1,-1,1,1,1,1,0.234259366989136
1,2,1,61,-3,3,0,0.567564010620117,1,1,-1,-1,1,1,0.234264135360718
1,2,1,62,9,9,0,0.400518655776978,-1,-1,1,1,-1,-1,0.317564010620117
1,2,1,63,-27,27,0,0.367130994796753,1,-1,-1,-1,1,1,0.150518655776978
1,2,1,64,81,81,1,0.650503635406494,-1,-1,-1,1,-1,-1,0.117130994796753
1,2,1,65,-3,3,1,0.534224271774292,1,1,-1,-1,-1,1,0.400503635406494
1,2,1,66,81,81,1,0.383794069290161,-1,1,1,1,-1,-1,0.284224271774292
1,2,1,67,9,9,1,0.400908231735229,1,1,1,-1,1,1,0.133794069290161
1,2,1,68,-9,9,1,0.534289836883545,1,1,1,1,1,-1,0.150908231735229
1,2,1,69,3,3,0,0.334275722503662,-1,1,1,1,1,1,0.284289836883545
1,2,1,70,-81,81,0,0.333797931671143,1,-1,1,-1,1,1,0.0842757225036621
1,2,1,76,-81,81,0,0.433834552764893,1,1,1,1,-1,-1,0.200954437255859
1,2,1,77,3,3,1,0.633816957473755,-1,-1,1,1,1,1,0.183834552764893
1,2,1,78,-81,81,0,0.45049786567688,1,1,-1,-1,1,1,0.383816957473755
1,2,1,79,9,9,1,0.484275817871094,-1,-1,1,1,-1,-1,0.20049786567688
1,2,1,80,0,0,1,0.483838081359863,1,1,-1,-1,1,1,0.234275817871094
1,2,1,81,-3,3,0,0.600479364395142,1,1,1,1,-1,-1,0.233838081359863
1,2,1,82,9,9,0,0.467568159103394,-1,-1,1,1,1,1,0.350479364395142
1,2,1,83,-9,9,0,0.517593860626221,1,-1,-1,-1,1,1,0.217568159103394
1,2,1,84,0,0,0,0.500488042831421,-1,-1,-1,1,-1,-1,0.267593860626221
1,2,1,85,9,9,0,0.567158699035645,1,-1,-1,-1,-1,1,0.250488042831421
1,2,1,86,-0,0,0,0.400472164154053,1,-1,-1,1,-1,-1,0.317158699035645
1,2,1,87,-81,81,0,0.317638635635376,-1,-1,-1,1,-1,1,0.150472164154053
1,2,1,88,3,3,1,0.450459241867065,-1,-1,-1,-1,-1,1,0.067638635635376
1,2,1,89,-9,9,0,0.450950622558594,1,1,-1,-1,-1,-1,0.200459241867065
1,2,1,90,81,81,1,0.450513124465942,-1,-1,1,1,-1,-1,0.200950622558594
1,2,1,91,3,3,0,0.533854961395264,1,1,-1,-1,1,1,0.200513124465942
1,2,1,92,9,9,0,0.567137479782104,1,-1,1,1,-1,-1,0.283854961395264
1,2,1,93,0,0,0,0.333801031112671,1,-1,-1,1,1,1,0.317137479782104
1,2,1,94,-27,27,0,0.417617082595825,1,-1,-1,1,-1,1,0.0838010311126709
1,2,1,95,3,3,1,0.467595100402832,-1,-1,-1,1,-1,1,0.167617082595825
1,2,1,96,-27,27,0,0.467188119888306,1,1,-1,-1,-1,1,0.217595100402832
1,2,1,97,9,9,1,0.800938367843628,-1,-1,1,1,-1,-1,0.217188119888306
1,2,1,98,-27,27,0,0.368714570999146,1,1,-1,-1,1,1,0.550938367843628
1,2,1,99,27,27,1,0.48473596572876,-1,-1,1,1,-1,-1,0.118714570999146
1,2,2,4,-0,0,1,0.467147350311279,1,1,1,1,1,1,0.184256553649902
1,2,2,5,81,81,1,0.518155574798584,-1,1,1,1,1,1,0.217147350311279
1,2,2,6,9,9,1,0.433823347091675,1,1,1,-1,1,1,0.268155574798584
1,2,2,7,27,27,1,0.56760573387146,1,1,1,1,1,-1,0.183823347091675
1,2,2,8,9,9,0,0.983816385269165,1,1,1,1,1,1,0.31760573387146
1,2,2,9,-27,27,0,0.41717004776001,1,-1,1,1,1,1,0.733816385269165
1,2,2,10,-81,81,0,0.383831739425659,-1,-1,-1,1,1,1,0.16717004776001
1,2,2,11,-81,81,0,0.417592525482178,-1,-1,-1,-1,-1,1,0.133831739425659
1,2,2,12,9,9,0,0.50045108795166,-1,-1,-1,-1,-1,-1,0.167592525482178
1,2,2,13,81,81,1,0.333809375762939,1,-1,-1,-1,-1,-1,0.25045108795166
1,2,2,14,3,3,0,0.583827495574951,1,1,-1,1,-1,-1,0.0838093757629395
1,2,2,15,-81,81,0,0.450889110565186,1,-1,1,1,-1,1,0.333827495574951
1,2,2,16,-3,3,0,0.38383674621582,-1,-1,-1,1,1,1,0.200889110565186
1,2,2,17,-9,9,0,0.600494623184204,-1,-1,-1,-1,-1,1,0.13383674621582
1,2,2,18,27,27,1,0.434269905090332,-1,-1,-1,-1,-1,-1,0.350494623184204
1,2,2,19,-9,9,1,0.683799505233765,1,1,-1,-1,-1,-1,0.184269905090332
1,2,2,20,-81,81,0,0.500931262969971,-1,1,1,1,-1,-1,0.433799505233765
1,2,2,21,-27,27,0,0.500889301300049,-1,-1,1,-1,1,1,0.250931262969971
1,2,2,22,-27,27,0,0.467125177383423,-1,-1,-1,-1,1,-1,0.250889301300049
1,2,2,23,-0,0,1,0.383825540542603,-1,-1,-1,-1,-1,-1,0.217125177383423
1,2,2,24,-81,81,0,0.46760892868042,-1,1,-1,-1,-1,-1,0.133825540542603
1,2,2,25,-3,3,0,0.650940418243408,-1,-1,1,-1,-1,-1,0.21760892868042
1,2,2,26,-81,81,0,0.483928442001343,-1,-1,-1,-1,1,-1,0.400940418243408
1,2,2,27,-3,3,1,0.467124223709106,-1,-1,-1,-1,-1,-1,0.233928442001343
1,2,2,28,-81,81,0,0.4837965965271,-1,1,-1,-1,-1,-1,0.217124223709106
1,2,2,29,3,3,1,0.650936603546143,-1,-1,1,-1,-1,-1,0.2337965965271
1,2,2,30,-3,3,0,0.633826494216919,1,1,-1,-1,1,-1,0.400936603546143
1,2,2,31,-27,27,0,0.433798551559448,-1,-1,1,1,-1,-1,0.383826494216919
1,2,2,32,-27,27,0,0.400524139404297,-1,-1,-1,-1,1,1,0.183798551559448
1,2,2,33,-27,27,0,0.46762752532959,-1,-1,-1,-1,-1,-1,0.150524139404297
1,2,2,34,-9,9,0,0.384227514266968,-1,-1,-1,-1,-1,-1,0.21762752532959
1,2,2,35,-0,0,1,0.467559576034546,-1,-1,-1,-1,-1,-1,0.134227514266968
1,2,2,36,27,27,1,0.450461149215698,-1,1,-1,-1,-1,-1,0.217559576034546
1,2,2,37,9,9,1,0.417138576507568,1,1,1,-1,-1,-1,0.200461149215698
1,2,2,38,3,3,0,0.484270572662354,1,1,1,1,1,-1,0.167138576507568
1,2,2,39,9,9,1,0.46762752532959,1,-1,1,1,1,1,0.234270572662354
1,2,2,40,-0,0,0,0.450499534606934,1,1,-1,1,1,1,0.21762752532959
1,2,2,41,-81,81,0,0.384255647659302,-1,-1,1,1,-1,1,0.200499534606934
1,2,2,42,-27,27,0,0.533812284469604,-1,-1,-1,-1,1,1,0.134255647659302
1,2,2,43,27,27,1,0.517143487930298,-1,-1,-1,-1,-1,-1,0.283812284469604
1,2,2,44,81,81,1,0.533843517303467,1,1,-1,-1,-1,-1,0.267143487930298
1,2,2,45,27,27,1,0.550490617752075,1,1,1,1,-1,-1,0.283843517303467
1,2,2,46,0,0,1,0.533830404281616,1,1,1,1,1,1,0.300490617752075
1,2,2,47,-81,81,0,0.467128992080688,1,1,1,1,1,1,0.283830404281616
1,2,2,48,-9,9,1,0.667156457901001,-1,-1,1,1,1,1,0.217128992080688
1,2,2,49,-81,81,0,0.367614507675171,-1,1,-1,-1,1,1,0.417156457901001
1,2,2,50,3,3,0,0.934272527694702,-1,-1,1,-1,-1,-1,0.117614507675171
1,2,2,51,27,27,1,0.317137479782104,1,-1,-1,-1,1,-1,0.684272527694702
1,2,2,52,81,81,1,0.517166137695312,1,1,-1,1,-1,-1,0.0671374797821045
1,2,2,53,3,3,1,0.418431282043457,1,1,1,1,-1,1,0.267166137695312
1,2,2,54,3,3,1,0.483864068984985,1,1,1,1,1,1,0.168431282043457
1,2,2,55,81,81,1,0.517132759094238,1,1,1,1,1,1,0.233864068984985
1,2,2,56,0,0,1,0.717131614685059,1,1,1,1,1,1,0.267132759094238
1,2,2,57,3,3,1,0.550494432449341,1,1,1,1,1,1,0.467131614685059
1,2,2,58,0,0,0,0.517151117324829,1,1,1,1,1,1,0.300494432449341
1,2,2,59,0,0,0,0.517614364624023,1,-1,1,1,1,1,0.267151117324829
1,2,2,60,-3,3,0,0.650937080383301,1,-1,-1,1,1,1,0.267614364624023
1,2,2,61,-81,81,0,0.600948095321655,-1,-1,-1,1,-1,1,0.400937080383301
1,2,2,62,-81,81,0,0.400472402572632,-1,-1,-1,-1,-1,1,0.350948095321655
1,2,2,63,3,3,0,0.56761360168457,-1,-1,-1,-1,-1,-1,0.150472402572632
1,2,2,64,27,27,1,0.284306526184082,1,-1,-1,-1,-1,-1,0.31761360168457
1,2,2,65,81,81,1,0.46761417388916,1,1,-1,1,-1,-1,0.034306526184082
1,2,2,66,27,27,1,0.367162704467773,1,1,1,1,-1,1,0.21761417388916
1,2,2,67,81,81,1,0.400899410247803,1,1,1,1,1,1,0.117162704467773
1,2,2,68,9,9,1,0.517158508300781,1,1,1,1,1,1,0.150899410247803
1,2,2,69,27,27,1,0.550894021987915,1,1,1,1,1,1,0.267158508300781
1,2,2,70,9,9,1,0.334354400634766,1,1,1,1,1,1,0.300894021987915
1,2,2,71,27,27,1,0.483799457550049,1,1,1,1,1,1,0.0843544006347656
1,2,2,72,-9,9,0,0.517572164535522,1,1,1,1,1,1,0.233799457550049
1,2,2,73,-81,81,0,0.567621469497681,-1,-1,1,1,1,1,0.267572164535522
1,2,2,74,-0,0,0,0.500505208969116,-1,-1,-1,-1,1,1,0.317621469497681
1,2,2,75,27,27,1,0.383792161941528,-1,-1,-1,-1,-1,-1,0.250505208969116
1,2,2,76,9,9,0,0.484239339828491,1,1,-1,-1,-1,-1,0.133792161941528
1,2,2,77,9,9,1,0.517626047134399,1,-1,1,1,-1,-1,0.234239339828491
1,2,2,78,3,3,0,0.750485420227051,1,1,-1,1,1,1,0.267626047134399
1,2,2,79,-9,9,0,0.534260511398315,1,-1,1,1,-1,1,0.500485420227051
1,2,2,80,81,81,1,0.500939846038818,-1,-1,-1,1,1,1,0.284260511398315
1,2,2,81,9,9,1,0.500476598739624,1,1,-1,-1,-1,1,0.250939846038818
1,2,2,82,3,3,0,0.550505399703979,1,1,1,1,-1,-1,0.250476598739624
1,2,2,83,9,9,1,0.650920391082764,1,-1,1,1,1,1,0.300505399703979
1,2,2,84,-27,27,0,0.484291553497314,1,1,-1,1,1,1,0.400920391082764
1,2,2,85,-27,27,0,0.500894069671631,-1,-1,1,1,-1,1,0.234291553497314
1,2,2,86,-9,9,0,0.467119693756104,-1,-1,-1,-1,1,1,0.250894069671631
1,2,2,87,-27,27,0,0.483788251876831,-1,-1,-1,-1,-1,-1,0.217119693756104
1,2,2,88,-3,3,0,0.417330503463745,-1,-1,-1,-1,-1,-1,0.233788251876831
1,2,2,89,-9,9,0,0.50168514251709,-1,-1,-1,-1,-1,-1,0.167330503463745
1,2,2,90,-3,3,0,0.450517416000366,-1,-1,-1,-1,-1,-1,0.25168514251709
1,2,2,91,-3,3,0,0.350903272628784,-1,-1,-1,-1,-1,-1,0.200517416000366
1,2,2,92,-81,81,0,0.38383960723877,-1,-1,-1,-1,-1,-1,0.100903272628784
1,2,2,93,-9,9,0,0.334292411804199,-1,-1,-1,-1,-1,-1,0.13383960723877
1,2,2,94,-9,9,0,0.367150783538818,-1,-1,-1,-1,-1,-1,0.0842924118041992
1,2,2,95,-27,27,0,0.41761302947998,-1,-1,-1,-1,-1,-1,0.117150783538818
1,2,2,96,-9,9,0,0.417593002319336,-1,-1,-1,-1,-1,-1,0.16761302947998
1,2,2,97,-0,0,0,0.633811712265015,-1,-1,-1,-1,-1,-1,0.167593002319336
1,2,2,98,3,3,0,0.467163562774658,-1,-1,-1,-1,-1,-1,0.383811712265015
1,2,2,99,0,0,1,0.517593622207642,1,-1,-1,-1,-1,-1,0.217163562774658
1,2,3,4,-3,3,1,0.717191457748413,1,1,-1,-1,-1,-1,0.200517654418945
1,2,3,5,-27,27,0,0.450495481491089,-1,1,1,1,-1,-1,0.467191457748413
1,2,3,6,0,0,0,0.467588901519775,-1,-1,1,-1,1,1,0.200495481491089
1,2,3,7,81,81,1,0.600941896438599,1,-1,-1,-1,1,-1,0.217588901519775
1,2,3,8,27,27,1,0.367633581161499,1,1,-1,1,-1,-1,0.350941896438599
1,2,3,9,-9,9,0,0.567156553268433,1,1,1,1,-1,1,0.117633581161499
1,2,3,10,3,3,1,0.534289360046387,-1,-1,1,1,1,1,0.317156553268433
1,2,3,11,81,81,1,0.48427939414978,1,1,-1,-1,1,1,0.284289360046387
1,2,3,12,-27,27,0,0.550890445709229,1,1,1,1,-1,-1,0.23427939414978
1,2,3,13,-3,3,1,0.600512504577637,-1,-1,1,1,1,1,0.300890445709229
1,2,3,14,-81,81,0,0.483864545822144,-1,1,-1,-1,1,1,0.350512504577637
1,2,3,15,-81,81,0,0.767166137695312,-1,-1,1,-1,-1,-1,0.233864545822144
1,2,3,20,0,0,1,0.717615604400635,-1,-1,1,1,1,1,0.150897979736328
1,2,3,21,3,3,0,0.800943374633789,1,1,-1,-1,1,1,0.467615604400635
1,2,3,22,-27,27,0,0.450456142425537,1,-1,1,1,-1,-1,0.550943374633789
1,2,3,23,27,27,1,0.517601490020752,-1,-1,-1,1,1,1,0.200456142425537
1,2,3,24,3,3,1,0.684276342391968,1,1,-1,-1,-1,1,0.267601490020752
1,2,3,25,0,0,0,0.550942182540894,1,1,1,1,-1,-1,0.434276342391968
1,2,3,26,9,9,0,0.417599439620972,1,-1,1,1,1,1,0.300942182540894
1,2,3,27,81,81,1,0.63381814956665,1,-1,-1,1,1,1,0.167599439620972
1,2,3,28,-9,9,0,0.400511264801025,1,1,-1,1,-1,1,0.38381814956665
1,2,3,29,-3,3,0,0.66763973236084,-1,-1,1,1,-1,1,0.150511264801025
1,2,3,30,81,81,1,0.367618560791016,-1,-1,-1,-1,1,1,0.41763973236084
1,2,3,31,9,9,1,0.450497388839722,1,1,-1,-1,-1,-1,0.117618560791016
1,2,3,32,27,27,1,0.534227609634399,1,1,1,1,-1,-1,0.200497388839722
1,2,3,33,-0,0,0,0.483806371688843,1,1,1,1,1,1,0.284227609634399
1,2,3,34,27,27,1,0.384283304214478,-1,-1,1,1,1,1,0.233806371688843
1,2,3,35,-27,27,0,0.483820199966431,1,1,-1,-1,1,1,0.134283304214478
1,2,3,36,-9,9,1,0.417166948318481,-1,-1,1,1,-1,-1,0.233820199966431
1,2,3,37,-81,81,0,0.667115211486816,-1,1,-1,-1,1,1,0.167166948318481
1,2,3,38,81,81,1,0.400465965270996,-1,-1,1,-1,-1,-1,0.417115211486816
1,2,3,39,-0,0,0,0.534309148788452,1,1,-1,-1,1,-1,0.150465965270996
1,2,3,40,0,0,1,0.41715145111084,-1,-1,1,1,-1,-1,0.284309148788452
1,2,3,41,-27,27,0,0.500497341156006,1,1,-1,-1,1,1,0.16715145111084
1,2,3,42,27,27,1,0.517582654953003,-1,-1,1,1,-1,-1,0.250497341156006
1,2,3,43,-9,9,0,0.483787059783936,1,1,-1,-1,1,1,0.267582654953003
1,2,3,44,81,81,1,0.450496435165405,-1,-1,1,1,-1,-1,0.233787059783936
1,2,3,45,-9,9,0,0.550954580307007,1,1,-1,-1,1,1,0.200496435165405
1,2,3,46,9,9,1,0.500956535339355,-1,-1,1,1,-1,-1,0.300954580307007
1,2,3,47,3,3,1,0.650492191314697,1,1,-1,-1,1,1,0.250956535339355
1,2,3,48,27,27,1,0.483788728713989,1,1,1,1,-1,-1,0.400492191314697
1,2,3,49,-0,0,0,0.517630338668823,1,1,1,1,1,1,0.233788728713989
1,2,3,50,-81,81,0,0.367618560791016,-1,-1,1,1,1,1,0.267630338668823
1,2,3,51,-0,0,1,0.551121473312378,-1,-1,-1,-1,1,1,0.117618560791016
1,2,3,52,-9,9,0,0.318138122558594,-1,1,-1,-1,-1,-1,0.301121473312378
1,2,3,53,27,27,1,0.284308433532715,-1,-1,1,-1,-1,-1,0.0681381225585938
1,2,3,54,3,3,0,0.45089316368103,1,1,-1,-1,1,-1,0.0343084335327148
1,2,3,55,-0,0,1,0.283811569213867,1,-1,1,1,-1,-1,0.20089316368103
1,2,3,56,-3,3,1,0.300899267196655,-1,1,-1,1,1,1,0.0338115692138672
1,2,3,57,-9,9,0,0.317604541778564,-1,1,1,-1,-1,1,0.0508992671966553
1,2,3,58,-9,9,0,0.434230089187622,-1,-1,1,-1,1,-1,0.0676045417785645
1,2,3,59,81,81,1,0.601407527923584,-1,-1,-1,-1,1,-1,0.184230089187622
1,2,3,60,-81,81,0,0.500462532043457,1,1,-1,-1,-1,-1,0.351407527923584
1,2,3,61,-3,3,0,0.41713547706604,-1,-1,1,1,-1,-1,0.250462532043457
1,2,3,62,-27,27,0,0.384230136871338,-1,-1,-1,-1,1,1,0.16713547706604
1,2,3,63,9,9,1,0.350485801696777,-1,-1,-1,-1,-1,-1,0.134230136871338
1,2,3,64,3,3,0,0.55089807510376,1,1,-1,-1,-1,-1,0.100485801696777
1,2,3,65,-3,3,0,0.434286594390869,1,-1,1,1,-1,-1,0.30089807510376
1,2,3,66,-81,81,0,0.817602634429932,-1,-1,-1,1,1,1,0.184286594390869
1,2,3,67,9,9,1,0.500568389892578,-1,-1,-1,-1,-1,1,0.567602634429932
1,2,3,68,-3,3,0,0.417165517807007,1,1,-1,-1,-1,-1,0.250568389892578
1,2,3,69,-81,81,0,0.250947952270508,-1,-1,1,1,-1,-1,0.167165517807007
1,2,3,74,9,9,0,0.517568111419678,1,-1,1,-1,-1,-1,0.300891160964966
1,2,3,75,27,27,1,0.367610454559326,1,-1,-1,1,1,-1,0.267568111419678
1,2,3,76,-27,27,0,0.533790111541748,1,1,-1,1,-1,1,0.117610454559326
1,2,3,77,81,81,1,0.417638540267944,-1,-1,1,1,-1,1,0.283790111541748
1,2,3,78,9,9,1,0.500513553619385,1,1,-1,-1,1,1,0.167638540267944
1,2,3,79,-27,27,0,0.317143678665161,1,1,1,1,-1,-1,0.250513553619385
1,2,3,80,-3,3,0,0.550977468490601,-1,-1,1,1,1,1,0.0671436786651611
1,2,3,81,-3,3,0,0.717552661895752,-1,-1,-1,-1,1,1,0.300977468490601
1,2,3,82,-9,9,1,0.767819881439209,-1,-1,-1,-1,-1,-1,0.467552661895752
1,2,3,83,-9,9,0,0.283841609954834,-1,1,-1,-1,-1,-1,0.517819881439209
1,2,3,84,3,3,1,0.483832359313965,-1,-1,1,-1,-1,-1,0.033841609954834
1,2,3,85,81,81,1,0.467138290405273,1,1,-1,-1,1,-1,0.233832359313965
1,2,3,86,-0,0,1,0.434298515319824,1,1,1,1,-1,-1,0.217138290405273
1,2,3,87,27,27,1,0.433905363082886,-1,1,1,1,1,1,0.184298515319824
1,2,3,88,81,81,1,0.450506448745728,1,1,1,-1,1,1,0.183905363082886
1,2,3,89,27,27,1,0.383797645568848,1,1,1,1,1,-1,0.200506448745728
1,2,3,90,-9,9,1,0.484293460845947,1,1,1,1,1,1,0.133797645568848
1,2,3,91,-0,0,0,0.267613649368286,-1,1,1,1,1,1,0.234293460845947
1,2,3,92,-27,27,0,0.584295511245728,-1,-1,1,-1,1,1,0.0176136493682861
1,2,3,93,3,3,1,0.401621580123901,-1,-1,-1,-1,1,-1,0.334295511245728
1,2,3,94,27,27,1,0.250971794128418,1,1,-1,-1,-1,-1,0.151621580123901
1,2,3,95,-81,81,0,0.501116514205933,1,1,1,1,-1,-1,0.000971794128417969
1,2,3,96,81,81,1,0.484299659729004,-1,-1,1,1,1,1,0.251116514205933
1,2,3,97,-9,9,0,0.450979471206665,1,1,-1,-1,1,1,0.234299659729004
1,2,3,98,81,81,1,0.500503540039062,-1,-1,1,1,-1,-1,0.200979471206665
1,2,3,99,-3,3,0,0.467233419418335,1,1,-1,-1,1,1,0.250503540039062
1,2,4,4,-81,81,0,0.417736530303955,1,1,1,1,-1,-1,0.48427152633667
1,2,4,5,-81,81,0,0.367157459259033,-1,-1,1,1,1,1,0.167736530303955
1,2,4,6,3,3,1,0.450519561767578,-1,-1,-1,-1,1,1,0.117157459259033
1,2,4,7,9,9,1,0.517142534255981,1,1,-1,-1,-1,-1,0.200519561767578
1,2,4,8,3,3,1,0.484686136245728,1,1,1,1,-1,-1,0.267142534255981
1,2,4,9,0,0,0,0.66764760017395,1,1,1,1,1,1,0.234686136245728
1,2,4,10,0,0,0,0.517558336257935,1,-1,1,1,1,1,0.41764760017395
1,2,4,11,27,27,1,0.417595386505127,1,-1,-1,1,1,1,0.267558336257935
1,2,4,12,3,3,1,0.384282350540161,1,1,-1,1,-1,1,0.167595386505127
1,2,4,13,27,27,1,0.434217929840088,1,1,1,1,-1,1,0.134282350540161
1,2,4,14,3,3,1,0.500898599624634,1,1,1,1,1,1,0.184217929840088
1,2,4,15,3,3,0,0.750478506088257,1,1,1,1,1,1,0.250898599624634
1,2,4,16,81,81,1,0.500453472137451,1,-1,1,1,1,1,0.500478506088257
1,2,4,17,3,3,0,0.683826923370361,1,1,-1,1,1,1,0.250453472137451
1,2,4,18,27,27,1,0.417128324508667,1,-1,1,1,-1,1,0.433826923370361
1,2,4,19,-0,0,1,0.550452470779419,1,1,-1,1,1,1,0.167128324508667
1,2,4,20,-27,27,0,0.33379864692688,-1,1,1,1,-1,1,0.300452470779419
1,2,4,21,-3,3,0,0.567595481872559,-1,-1,1,-1,1,1,0.0837986469268799
1,2,4,22,-0,0,0,0.667178392410278,-1,-1,-1,-1,1,-1,0.317595481872559
1,2,4,23,81,81,1,0.417561292648315,-1,-1,-1,-1,-1,-1,0.417178392410278
1,2,4,24,3,3,0,0.517629384994507,1,1,-1,-1,-1,-1,0.167561292648315
1,2,4,25,3,3,1,0.367619514465332,1,-1,1,1,-1,-1,0.267629384994507
1,2,4,26,9,9,1,0.250972509384155,1,1,-1,1,1,1,0.117619514465332
1,2,4,27,-27,27,0,0.500587463378906,1,1,1,1,-1,1,0.000972509384155273
1,2,4,28,-9,9,0,0.484274864196777,-1,-1,1,1,1,1,0.250587463378906
1,2,4,29,-81,81,0,0.267179489135742,-1,-1,-1,-1,1,1,0.234274864196777
1,2,4,30,-81,81,0,0.450971364974976,-1,-1,-1,-1,-1,-1,0.0171794891357422
1,2,4,31,-9,9,0,0.467613935470581,-1,-1,-1,-1,-1,-1,0.200971364974976
1,2,4,32,-27,27,0,0.433833360671997,-1,-1,-1,-1,-1,-1,0.217613935470581
1,2,4,33,-0,0,0,0.717593669891357,-1,-1,-1,-1,-1,-1,0.183833360671997
1,2,4,34,-3,3,0,0.500453472137451,-1,-1,-1,-1,-1,-1,0.467593669891357
1,2,4,35,-3,3,0,0.567557334899902,-1,-1,-1,-1,-1,-1,0.250453472137451
1,2,4,36,-9,9,0,0.467158555984497,-1,-1,-1,-1,-1,-1,0.317557334899902
1,2,4,37,27,27,1,0.484273910522461,-1,-1,-1,-1,-1,-1,0.217158555984497
1,2,4,38,9,9,1,0.50092077255249,1,1,-1,-1,-1,-1,0.234273910522461
1,2,4,39,0,0,1,0.450957536697388,1,1,1,1,-1,-1,0.25092077255249
1,2,4,40,9,9,1,0.567176342010498,1,1,1,1,1,1,0.200957536697388
1,2,4,41,0,0,1,0.400951623916626,1,1,1,1,1,1,0.317176342010498
1,2,4,42,0,0,1,0.417131423950195,1,1,1,1,1,1,0.150951623916626
1,2,4,43,0,0,0,0.534283399581909,1,1,1,1,1,1,0.167131423950195
1,2,4,44,27,27,1,0.36714243888855,1,-1,1,1,1,1,0.284283399581909
1,2,4,45,81,81,1,0.317178726196289,1,1,-1,1,1,1,0.11714243888855
1,2,4,46,-81,81,0,0.483824729919434,1,1,1,1,-1,1,0.0671787261962891
1,2,4,47,3,3,1,0.650481939315796,-1,-1,1,1,1,1,0.233824729919434
1,2,4,48,9,9,1,0.333810806274414,1,1,-1,-1,1,1,0.400481939315796
1,2,4,49,3,3,1,0.317168712615967,1,1,1,1,-1,-1,0.0838108062744141
1,2,4,50,3,3,1,0.350927829742432,1,1,1,1,1,1,0.0671687126159668
1,2,4,51,3,3,1,0.400885343551636,1,1,1,1,1,1,0.100927829742432
1,2,4,52,27,27,1,0.417620658874512,1,1,1,1,1,1,0.150885343551636
1,2,4,53,-27,27,0,0.383841514587402,1,1,1,1,1,1,0.167620658874512
1,2,4,54,-9,9,0,0.400465250015259,-1,-1,1,1,1,1,0.133841514587402
1,2,4,55,3,3,1,0.367169618606567,-1,-1,-1,-1,1,1,0.150465250015259
1,2,4,56,9,9,1,0.383859634399414,1,1,-1,-1,-1,-1,0.117169618606567
1,2,4,57,3,3,1,0.400879859924316,1,1,1,1,-1,-1,0.133859634399414
1,2,4,58,81,81,1,0.400450468063354,1,1,1,1,1,1,0.150879859924316
1,2,4,59,-27,27,0,0.417756795883179,1,1,1,1,1,1,0.150450468063354
1,2,4,60,-27,27,0,0.433829784393311,-1,-1,1,1,1,1,0.167756795883179
1,2,4,61,-9,9,0,0.517601728439331,-1,-1,-1,-1,1,1,0.183829784393311
1,2,4,62,-81,81,0,0.384284734725952,-1,-1,-1,-1,-1,-1,0.267601728439331
1,2,4,63,-9,9,1,0.500882863998413,-1,-1,-1,-1,-1,-1,0.134284734725952
1,2,4,64,-81,81,0,0.467163324356079,-1,1,-1,-1,-1,-1,0.250882863998413
1,2,4,65,-9,9,0,0.501011371612549,-1,-1,1,-1,-1,-1,0.217163324356079
1,2,4,66,81,81,1,0.450933456420898,-1,-1,-1,-1,1,-1,0.251011371612549
1,2,4,67,81,81,1,0.467154741287231,1,1,-1,-1,-1,-1,0.200933456420898
1,2,4,68,-3,3,0,0.483822822570801,1,1,1,1,-1,-1,0.217154741287231
1,2,4,69,81,81,1,0.450543642044067,-1,-1,1,1,1,1,0.233822822570801
1,2,4,70,27,27,1,0.367606401443481,1,1,-1,-1,1,1,0.200543642044067
1,2,4,71,3,3,0,0.600926876068115,1,1,1,1,-1,-1,0.117606401443481
1,2,4,72,-27,27,0,0.417142629623413,1,-1,1,1,1,1,0.350926876068115
1,2,4,73,-81,81,0,1.15098166465759,-1,-1,-1,1,1,1,0.167142629623413
1,2,4,74,-81,81,0,0.483876466751099,-1,-1,-1,-1,-1,1,0.900981664657593
1,2,4,75,-9,9,0,0.383837461471558,-1,-1,-1,-1,-1,-1,0.233876466751099
1,2,4,76,-9,9,0,0.550950527191162,-1,-1,-1,-1,-1,-1,0.133837461471558
1,2,4,77,-3,3,1,0.617160320281982,-1,-1,-1,-1,-1,-1,0.300950527191162
1,2,4,78,-27,27,0,0.250990629196167,-1,1,-1,-1,-1,-1,0.367160320281982
1,2,4,79,-27,27,0,0.367613554000854,-1,-1,1,-1,-1,-1,0.000990629196166992
1,2,4,80,-9,9,0,0.450489521026611,-1,-1,-1,-1,1,-1,0.117613554000854
1,2,4,81,-9,9,0,0.400514602661133,-1,-1,-1,-1,-1,-1,0.200489521026611
1,2,4,82,81,81,1,0.38431453704834,-1,-1,-1,-1,-1,-1,0.150514602661133
1,2,4,83,81,81,1,0.284236431121826,1,1,-1,-1,-1,-1,0.13431453704834
1,2,4,84,9,9,1,0.483834028244019,1,1,1,1,-1,-1,0.0342364311218262
1,2,4,85,-9,9,0,0.583820819854736,1,1,1,1,1,1,0.233834028244019
1,2,4,86,-3,3,1,0.383830547332764,-1,-1,1,1,1,1,0.333820819854736
1,2,4,87,-27,27,0,0.350932359695435,-1,1,-1,-1,1,1,0.133830547332764
1,2,4,88,-9,9,0,0.500917673110962,-1,-1,1,-1,-1,-1,0.100932359695435
1,2,4,89,-27,27,0,0.450499773025513,-1,-1,-1,-1,1,-1,0.250917673110962
1,2,4,90,-27,27,0,0.400507688522339,-1,-1,-1,-1,-1,-1,0.200499773025513
1,2,4,91,81,81,1,0.350903272628784,-1,-1,-1,-1,-1,-1,0.150507688522339
1,2,4,92,27,27,1,0.467617511749268,1,1,-1,-1,-1,-1,0.100903272628784
1,2,4,93,81,81,1,0.367619752883911,1,1,1,1,-1,-1,0.217617511749268
1,2,4,94,3,3,1,0.450475931167603,1,1,1,1,1,1,0.117619752883911
1,2,4,95,81,81,1,0.417615652084351,1,1,1,1,1,1,0.200475931167603
1,2,4,96,9,9,1,0.517167568206787,1,1,1,1,1,1,0.167615652084351
1,2,4,97,-27,27,0,0.41716742515564,1,1,1,1,1,1,0.267167568206787
1,2,4,98,-0,0,1,0.600948572158813,-1,-1,1,1,1,1,0.16716742515564
1,2,4,99,-81,81,0,0.350485324859619,-1,1,-1,-1,1,1,0.350948572158813
1,2,5,4,9,9,1,0.567119359970093,-1,-1,1,1,-1,-1,0.067594051361084
1,2,5,5,3,3,1,0.717547655105591,1,1,-1,-1,1,1,0.317119359970093
1,2,5,6,3,3,1,0.350460290908813,1,1,1,1,-1,-1,0.467547655105591
1,2,5,7,-9,9,1,0.617607593536377,1,1,1,1,1,1,0.100460290908813
1,2,5,8,81,81,1,0.450454235076904,-1,1,1,1,1,1,0.367607593536377
1,2,5,9,-81,81,0,0.300901174545288,1,1,1,-1,1,1,0.200454235076904
1,2,5,10,3,3,1,0.484279632568359,-1,-1,1,1,1,-1,0.0509011745452881
1,2,5,11,-81,81,0,0.383795499801636,1,1,-1,-1,1,1,0.234279632568359
1,2,5,12,81,81,1,0.400951385498047,-1,-1,1,1,-1,-1,0.133795499801636
1,2,5,13,-9,9,0,0.517159461975098,1,1,-1,-1,1,1,0.150951385498047
1,2,5,14,-3,3,0,0.400917768478394,-1,-1,1,1,-1,-1,0.267159461975098
1,2,5,15,9,9,0,0.483807563781738,-1,-1,-1,-1,1,1,0.150917768478394
1,2,5,16,-3,3,0,0.567607164382935,1,-1,-1,-1,-1,-1,0.233807563781738
1,2,5,17,27,27,1,0.400513887405396,-1,-1,-1,1,-1,-1,0.317607164382935
1,2,5,18,-81,81,0,0.567612409591675,1,1,-1,-1,-1,1,0.150513887405396
1,2,5,19,81,81,1,0.367165327072144,-1,-1,1,1,-1,-1,0.317612409591675
1,2,5,20,-81,81,0,0.383836507797241,1,1,-1,-1,1,1,0.117165327072144
1,2,5,21,27,27,1,0.5004563331604,-1,-1,1,1,-1,-1,0.133836507797241
1,2,5,22,-9,9,0,0.484285354614258,1,1,-1,-1,1,1,0.2504563331604
1,2,5,23,27,27,1,0.433825731277466,-1,-1,1,1,-1,-1,0.234285354614258
1,2,5,24,-9,9,0,0.350953578948975,1,1,-1,-1,1,1,0.183825731277466
1,2,5,25,3,3,1,0.350951671600342,-1,-1,1,1,-1,-1,0.100953578948975
1,2,5,26,3,3,0,0.617173194885254,1,1,-1,-1,1,1,0.100951671600342
1,2,5,27,-9,9,0,0.650503635406494,1,-1,1,1,-1,-1,0.367173194885254
1,2,5,28,9,9,1,0.384227275848389,-1,-1,-1,1,1,1,0.400503635406494
1,2,5,29,-0,0,1,0.550468444824219,1,1,-1,-1,-1,1,0.134227275848389
1,2,5,30,27,27,1,0.483813524246216,-1,1,1,1,-1,-1,0.300468444824219
1,2,5,31,-27,27,0,0.268365383148193,1,1,1,-1,1,1,0.233813524246216
1,2,5,32,3,3,1,0.400969505310059,-1,-1,1,1,1,-1,0.0183653831481934
1,2,5,33,-3,3,1,0.30046010017395,1,1,-1,-1,1,1,0.150969505310059
1,2,5,38,-27,27,0,0.350512504577637,1,1,-1,-1,-1,-1,0.0842835903167725
1,2,5,39,27,27,1,0.717611789703369,-1,-1,1,1,-1,-1,0.100512504577637
1,2,5,40,27,27,1,0.350464344024658,1,1,-1,-1,1,1,0.467611789703369
1,2,5,41,-81,81,0,0.517194271087646,1,1,1,1,-1,-1,0.100464344024658
1,2,5,42,9,9,1,0.500468730926514,-1,-1,1,1,1,1,0.267194271087646
1,2,5,43,27,27,1,0.383832454681396,1,1,-1,-1,1,1,0.250468730926514
1,2,5,44,-3,3,0,0.484258651733398,1,1,1,1,-1,-1,0.133832454681396
1,2,5,45,3,3,1,0.500474691390991,-1,-1,1,1,1,1,0.234258651733398
1,2,5,46,-81,81,0,0.317787885665894,1,1,-1,-1,1,1,0.250474691390991
1,2,5,47,9,9,1,0.483795404434204,-1,-1,1,1,-1,-1,0.0677878856658936
1,2,5,48,-81,81,0,0.484311580657959,1,1,-1,-1,1,1,0.233795404434204
1,2,5,49,3,3,1,0.567155599594116,-1,-1,1,1,-1,-1,0.234311580657959
1,2,5,50,-9,9,0,0.450490713119507,1,1,-1,-1,1,1,0.317155599594116
1,2,5,51,-27,27,0,0.300973415374756,-1,-1,1,1,-1,-1,0.200490713119507
1,2,5,52,81,81,1,0.317159652709961,-1,-1,-1,-1,1,1,0.0509734153747559
1,2,5,53,-27,27,0,0.433787107467651,1,1,-1,-1,-1,-1,0.0671596527099609
1,2,5,54,81,81,1,0.433793067932129,-1,-1,1,1,-1,-1,0.183787107467651
1,2,5,55,-3,3,0,0.684957504272461,1,1,-1,-1,1,1,0.183793067932129
1,2,5,56,81,81,1,0.334283590316772,-1,-1,1,1,-1,-1,0.434957504272461
1,2,5,57,81,81,1,0.350531816482544,1,1,-1,-1,1,1,0.0842835903167725
1,2,5,58,-0,0,1,0.367203712463379,1,1,1,1,-1,-1,0.100531816482544
1,2,5,59,-27,27,0,0.250997304916382,-1,1,1,1,1,1,0.117203712463379
1,2,5,60,9,9,1,0.400497913360596,-1,-1,1,-1,1,1,0.000997304916381836
1,2,5,61,-27,27,0,0.31756067276001,1,1,-1,-1,1,-1,0.150497913360596
1,2,5,62,3,3,1,0.467237710952759,-1,-1,1,1,-1,-1,0.0675606727600098
1,2,5,63,-9,9,1,0.817103624343872,1,1,-1,-1,1,1,0.217237710952759
1,2,5,64,3,3,1,0.517155647277832,-1,1,1,1,-1,-1,0.567103624343872
1,2,5,65,-27,27,0,0.483798503875732,1,1,1,-1,1,1,0.267155647277832
1,2,5,66,3,3,1,0.400953531265259,-1,-1,1,1,1,-1,0.233798503875732
1,2,5,67,-0,0,0,0.350931644439697,1,1,-1,-1,1,1,0.150953531265259
1,2,5,68,27,27,1,0.300530433654785,-1,-1,1,1,-1,-1,0.100931644439697
1,2,5,69,0,0,0,0.784274816513062,1,1,-1,-1,1,1,0.0505304336547852
1,2,5,70,-9,9,1,0.58382248878479,1,-1,1,1,-1,-1,0.534274816513062
1,2,5,71,27,27,1,0.300522565841675,-1,1,-1,1,1,1,0.33382248878479
1,2,5,72,-9,9,0,0.767656087875366,1,1,1,-1,-1,1,0.0505225658416748
1,2,5,73,9,9,1,0.46717381477356,-1,-1,1,1,1,-1,0.517656087875366
1,2,5,74,-0,0,0,0.650969743728638,1,1,-1,-1,1,1,0.21717381477356
1,2,5,75,9,9,1,0.483794689178467,-1,-1,1,1,-1,-1,0.400969743728638
1,2,5,76,81,81,1,0.350510597229004,1,1,-1,-1,1,1,0.233794689178467
1,2,5,77,0,0,0,0.783781051635742,1,1,1,1,-1,-1,0.100510597229004
1,2,5,78,-81,81,0,0.500917911529541,1,-1,1,1,1,1,0.533781051635742
1,2,5,79,-0,0,0,0.800943613052368,-1,-1,-1,1,1,1,0.250917911529541
1,2,5,80,0,0,0,0.600967168807983,-1,-1,-1,-1,-1,1,0.550943613052368
1,2,5,81,-9,9,0,0.317619562149048,1,-1,-1,-1,-1,-1,0.350967168807983
1,2,5,82,9,9,0,0.617597818374634,-1,-1,-1,1,-1,-1,0.0676195621490479
1,2,5,83,0,0,0,0.567140579223633,1,-1,-1,-1,-1,1,0.367597818374634
1,2,5,84,-27,27,0,0.434287786483765,1,-1,-1,1,-1,-1,0.317140579223633
1,2,5,85,-9,9,0,0.467142105102539,-1,-1,-1,1,-1,1,0.184287786483765
1,2,5,86,-81,81,0,0.467625856399536,-1,-1,-1,-1,-1,1,0.217142105102539
1,2,5,87,27,27,1,0.283871650695801,-1,-1,-1,-1,-1,-1,0.217625856399536
1,2,5,88,-81,81,0,0.517163991928101,1,1,-1,-1,-1,-1,0.0338716506958008
1,2,5,89,27,27,1,0.467168569564819,-1,-1,1,1,-1,-1,0.267163991928101
1,2,5,90,-81,81,0,0.501018524169922,1,1,-1,-1,1,1,0.217168569564819
1,2,5,91,0,0,0,0.617159128189087,-1,-1,1,1,-1,-1,0.251018524169922
1,2,5,92,-27,27,0,0.283860445022583,1,-1,-1,-1,1,1,0.367159128189087
1,2,5,93,3,3,0,0.533854484558105,-1,-1,-1,1,-1,-1,0.033860445022583
1,2,5,94,-3,3,0,0.53382134437561,1,-1,-1,-1,-1,1,0.283854484558105
1,2,5,95,27,27,1,0.450511932373047,-1,-1,-1,1,-1,-1,0.28382134437561
1,2,5,96,-0,0,0,0.633780002593994,1,1,-1,-1,-1,1,0.200511932373047
1,2,5,97,81,81,1,0.483844757080078,-1,-1,1,1,-1,-1,0.383780002593994
1,2,5,98,-3,3,1,0.567157983779907,1,1,-1,-1,1,1,0.233844757080078
1,2,5,99,9,9,1,0.600503921508789,-1,1,1,1,-1,-1,0.317157983779907
1,2,6,4,27,27,1,0.96756911277771,1,1,-1,-1,1,1,0.0842940807342529
1,2,6,5,-9,9,1,0.63381290435791,1,1,1,1,-1,-1,0.71756911277771
1,2,6,6,3,3,0,1.40088891983032,-1,1,1,1,1,1,0.38381290435791
1,2,6,7,3,3,1,0.700974464416504,1,-1,1,-1,1,1,1.15088891983032
1,2,6,8,-9,9,0,0.517153024673462,1,1,-1,1,1,-1,0.450974464416504
1,2,6,9,-9,9,0,0.5181565284729,-1,-1,1,1,-1,1,0.267153024673462
1,2,6,10,-81,81,0,0.50089430809021,-1,-1,-1,-1,1,1,0.2681565284729
1,2,6,11,-9,9,0,0.667610168457031,-1,-1,-1,-1,-1,-1,0.25089430809021
1,2,6,12,9,9,0,0.584226131439209,-1,-1,-1,-1,-1,-1,0.417610168457031
1,2,6,13,-0,0,1,0.534223318099976,1,-1,-1,-1,-1,-1,0.334226131439209
1,2,6,14,9,9,1,0.533809900283813,-1,1,-1,1,-1,-1,0.284223318099976
1,2,6,15,-81,81,0,0.500894784927368,1,1,1,-1,-1,1,0.283809900283813
1,2,6,16,-81,81,0,0.434273719787598,-1,-1,1,1,1,-1,0.250894784927368
1,2,6,17,-27,27,0,0.434276342391968,-1,-1,-1,-1,1,1,0.184273719787598
1,2,6,18,0,0,0,0.450484275817871,-1,-1,-1,-1,-1,-1,0.184276342391968
1,2,6,19,-3,3,0,0.517634630203247,1,-1,-1,-1,-1,-1,0.200484275817871
1,2,6,20,-27,27,0,0.43382740020752,-1,-1,-1,1,-1,-1,0.267634630203247
1,2,6,21,27,27,1,0.500460147857666,-1,-1,-1,-1,-1,1,0.18382740020752
1,2,6,22,3,3,0,0.467167615890503,1,1,-1,-1,-1,-1,0.250460147857666
1,2,6,23,9,9,1,0.450918912887573,1,-1,1,1,-1,-1,0.217167615890503
1,2,6,24,9,9,1,0.484222173690796,1,1,-1,1,1,1,0.200918912887573
1,2,6,25,-0,0,1,0.583837032318115,1,1,1,1,-1,1,0.234222173690796
1,2,6,26,-9,9,0,0.700922012329102,-1,1,1,1,1,1,0.333837032318115
1,2,6,27,27,27,1,0.467125177383423,-1,-1,1,-1,1,1,0.450922012329102
1,2,6,28,9,9,1,0.400459051132202,1,1,-1,-1,1,-1,0.217125177383423
1,2,6,29,3,3,1,0.767539501190186,1,1,1,1,-1,-1,0.150459051132202
1,2,6,30,-3,3,0,0.850471019744873,1,1,1,1,1,1,0.517539501190186
1,2,6,31,81,81,1,0.33422327041626,-1,-1,1,1,1,1,0.600471019744873
1,2,6,32,27,27,1,0.400631904602051,1,1,-1,-1,1,1,0.0842232704162598
1,2,6,33,-81,81,0,0.467161893844604,1,1,1,1,-1,-1,0.150631904602051
1,2,6,34,-9,9,0,0.417126178741455,-1,-1,1,1,1,1,0.217161893844604
1,2,6,35,-0,0,0,0.41756010055542,-1,-1,-1,-1,1,1,0.167126178741455
1,2,6,36,-81,81,0,0.433789968490601,-1,-1,-1,-1,-1,-1,0.16756010055542
1,2,6,37,-0,0,0,0.500939607620239,-1,-1,-1,-1,-1,-1,0.183789968490601
1,2,6,38,-3,3,0,0.317570209503174,-1,-1,-1,-1,-1,-1,0.250939607620239
1,2,6,39,3,3,0,0.767176389694214,-1,-1,-1,-1,-1,-1,0.0675702095031738
1,2,6,40,-9,9,0,0.383798599243164,1,-1,-1,-1,-1,-1,0.517176389694214
1,2,6,41,-0,0,0,0.283890724182129,-1,-1,-1,1,-1,-1,0.133798599243164
1,2,6,42,81,81,1,0.400957584381104,-1,-1,-1,-1,-1,1,0.0338907241821289
1,2,6,43,-3,3,1,0.650498628616333,1,1,-1,-1,-1,-1,0.150957584381104
1,2,6,44,-3,3,0,0.550929307937622,-1,1,1,1,-1,-1,0.400498628616333
1,2,6,45,-3,3,0,0.367166519165039,-1,-1,1,-1,1,1,0.300929307937622
1,2,6,46,-0,0,0,0.383830547332764,-1,-1,-1,-1,1,-1,0.117166519165039
1,2,6,47,-3,3,0,0.383828163146973,-1,-1,-1,-1,-1,-1,0.133830547332764
1,2,6,48,-9,9,0,0.333837509155273,-1,-1,-1,-1,-1,-1,0.133828163146973
1,2,6,49,27,27,1,0.25096583366394,-1,-1,-1,-1,-1,-1,0.0838375091552734
1,2,6,50,27,27,1,0.500900268554688,1,1,-1,-1,-1,-1,0.00096583366394043
1,2,6,51,-3,3,0,0.450495719909668,1,1,1,1,-1,-1,0.250900268554688
1,2,6,52,-81,81,0,0.533824682235718,-1,-1,1,1,1,1,0.200495719909668
1,2,6,53,3,3,0,0.417155504226685,-1,-1,-1,-1,1,1,0.283824682235718
1,2,6,54,-27,27,0,0.383808612823486,1,-1,-1,-1,-1,-1,0.167155504226685
1,2,6,55,3,3,0,0.585107088088989,-1,-1,-1,1,-1,-1,0.133808612823486
1,2,6,56,-81,81,0,0.383797168731689,1,-1,-1,-1,-1,1,0.335107088088989
1,2,6,57,0,0,0,0.534224033355713,-1,-1,-1,1,-1,-1,0.133797168731689
1,2,6,58,-81,81,0,0.500946521759033,1,-1,-1,-1,-1,1,0.284224033355713
1,2,6,59,-27,27,0,0.317620515823364,-1,-1,-1,1,-1,-1,0.250946521759033
1,2,6,64,-3,3,1,0.567153692245483,-1,-1,1,1,1,1,0.250921010971069
1,2,6,65,81,81,1,0.400494575500488,-1,1,-1,-1,1,1,0.317153692245483
1,2,6,66,81,81,1,0.45050048828125,1,1,1,-1,-1,-1,0.150494575500488
1,2,6,67,3,3,1,0.533836603164673,1,1,1,1,1,-1,0.20050048828125
1,2,6,68,27,27,1,0.284290552139282,1,1,1,1,1,1,0.283836603164673
1,2,6,69,0,0,1,0.517611503601074,1,1,1,1,1,1,0.0342905521392822
1,2,6,70,81,81,1,0.417167663574219,1,1,1,1,1,1,0.267611503601074
1,2,6,71,27,27,1,0.33429217338562,1,1,1,1,1,1,0.167167663574219
1,2,6,72,3,3,0,0.617618560791016,1,1,1,1,1,1,0.0842921733856201
1,2,6,73,-81,81,0,0.433834552764893,1,-1,1,1,1,1,0.367618560791016
1,2,6,74,27,27,1,0.434282064437866,-1,-1,-1,1,1,1,0.183834552764893
1,2,6,75,-27,27,0,0.600502490997314,1,1,-1,-1,-1,1,0.184282064437866
1,2,6,76,81,81,1,0.367614030838013,-1,-1,1,1,-1,-1,0.350502490997314
1,2,6,77,9,9,1,0.533833503723145,1,1,-1,-1,1,1,0.117614030838013
1,2,6,78,-0,0,1,0.50049352645874,1,1,1,1,-1,-1,0.283833503723145
1,2,6,79,9,9,1,0.534277439117432,-1,1,1,1,1,1,0.25049352645874
1,2,6,80,-9,9,0,0.484282255172729,1,1,1,-1,1,1,0.284277439117432
1,2,6,81,-9,9,0,0.417125225067139,-1,-1,1,1,1,-1,0.234282255172729
1,2,6,82,27,27,1,0.417842149734497,-1,-1,-1,-1,1,1,0.167125225067139
1,2,6,83,-3,3,1,0.617557287216187,1,1,-1,-1,-1,-1,0.167842149734497
1,2,6,84,-3,3,0,0.584278583526611,-1,1,1,1,-1,-1,0.367557287216187
1,2,6,85,9,9,1,0.53422212600708,-1,-1,1,-1,1,1,0.334278583526611
1,2,6,86,-27,27,0,0.534283399581909,1,1,-1,-1,1,-1,0.28422212600708
1,2,6,87,27,27,1,0.434353590011597,-1,-1,1,1,-1,-1,0.284283399581909
1,2,6,88,27,27,1,0.450948715209961,1,1,-1,-1,1,1,0.184353590011597
1,2,6,89,-3,3,1,0.567638158798218,1,1,1,1,-1,-1,0.200948715209961
1,2,6,90,-9,9,0,0.384232044219971,-1,1,1,1,1,1,0.317638158798218
1,2,6,91,3,3,0,0.633782148361206,-1,-1,1,-1,1,1,0.134232044219971
1,2,6,92,-81,81,0,0.467161655426025,1,-1,-1,-1,1,-1,0.383782148361206
1,2,6,93,81,81,1,0.367625713348389,-1,-1,-1,1,-1,-1,0.217161655426025
1,2,6,94,-27,27,0,0.451728582382202,1,1,-1,-1,-1,1,0.117625713348389
1,2,6,95,9,9,1,0.51715350151062,-1,-1,1,1,-1,-1,0.201728582382202
1,2,6,96,81,81,1,0.483787536621094,1,1,-1,-1,1,1,0.26715350151062
1,2,6,97,-81,81,0,0.533821105957031,1,1,1,1,-1,-1,0.233787536621094
1,2,6,98,27,27,1,0.350494623184204,-1,-1,1,1,1,1,0.283821105957031
1,2,6,99,-81,81,0,0.483817577362061,1,1,-1,-1,1,1,0.100494623184204
1,3,1,4,-9,9,0,0.500942945480347,1,-1,1,-1,1,1,0.300569772720337
1,3,1,5,9,9,1,0.75047779083252,-1,-1,-1,1,1,-1,0.250942945480347
1,3,1,6,-0,0,1,0.700461149215698,1,1,-1,-1,-1,1,0.50047779083252
1,3,1,7,-27,27,0,0.550920009613037,-1,1,1,1,-1,-1,0.450461149215698
1,3,1,8,81,81,1,0.50050163269043,-1,-1,1,-1,1,1,0.300920009613037
1,3,1,9,-3,3,0,0.817600727081299,1,1,-1,-1,1,-1,0.25050163269043
1,3,1,10,27,27,1,0.66716194152832,-1,-1,1,1,-1,-1,0.567600727081299
1,3,1,11,-27,27,0,0.41712498664856,1,1,-1,-1,1,1,0.41716194152832
1,3,1,12,0,0,0,1.08422684669495,-1,-1,1,1,-1,-1,0.16712498664856
1,3,1,13,-0,0,0,0.500475168228149,1,-1,-1,-1,1,1,0.834226846694946
1,3,1,14,81,81,1,0.501731872558594,-1,-1,-1,1,-1,-1,0.250475168228149
1,3,1,15,-27,27,0,0.484256982803345,1,1,-1,-1,-1,1,0.251731872558594
1,3,1,16,3,3,1,0.500473976135254,-1,-1,1,1,-1,-1,0.234256982803345
1,3,1,17,-27,27,0,0.483790874481201,1,1,-1,-1,1,1,0.250473976135254
1,3,1,18,9,9,1,0.550487995147705,-1,-1,1,1,-1,-1,0.233790874481201
1,3,1,19,-3,3,1,0.650460958480835,1,1,-1,-1,1,1,0.300487995147705
1,3,1,20,81,81,1,0.500490188598633,-1,1,1,1,-1,-1,0.400460958480835
1,3,1,21,-81,81,0,0.934470176696777,1,1,1,-1,1,1,0.250490188598633
1,3,1,22,27,27,1,0.600927114486694,-1,-1,1,1,1,-1,0.684470176696777
1,3,1,23,-81,81,0,0.534250020980835,1,1,-1,-1,1,1,0.350927114486694
1,3,1,24,27,27,1,0.667135000228882,-1,-1,1,1,-1,-1,0.284250020980835
1,3,1,25,-81,81,0,0.450489044189453,1,1,-1,-1,1,1,0.417135000228882
1,3,1,26,3,3,1,0.567117214202881,-1,-1,1,1,-1,-1,0.200489044189453
1,3,1,27,-27,27,0,0.617133855819702,1,1,-1,-1,1,1,0.317117214202881
1,3,1,28,0,0,1,0.867584943771362,-1,-1,1,1,-1,-1,0.367133855819702
1,3,1,29,-81,81,0,0.500918865203857,1,1,-1,-1,1,1,0.617584943771362
1,3,1,30,27,27,1,0.484232902526855,-1,-1,1,1,-1,-1,0.250918865203857
1,3,1,31,-27,27,0,0.51711893081665,1,1,-1,-1,1,1,0.234232902526855
1,3,1,32,0,0,1,0.584268093109131,-1,-1,1,1,-1,-1,0.26711893081665
1,3,1,33,-3,3,0,0.784236907958984,1,1,-1,-1,1,1,0.334268093109131
1,3,1,34,9,9,1,0.650442838668823,-1,-1,1,1,-1,-1,0.534236907958984
1,3,1,35,-0,0,1,0.450513124465942,1,1,-1,-1,1,1,0.400442838668823
1,3,1,36,9,9,1,0.667132616043091,-1,1,1,1,-1,-1,0.200513124465942
1,3,1,37,-81,81,0,0.850894212722778,1,1,1,-1,1,1,0.417132616043091
1,3,1,38,-27,27,0,0.517153024673462,-1,-1,1,1,1,-1,0.600894212722778
1,3,1,47,9,9,1,0.25097393989563,-1,-1,-1,-1,1,1,0.167143106460571
1,3,1,54,-81,81,0,0.85091495513916,1,1,1,-1,1,1,0.0171451568603516
1,3,1,55,81,81,1,0.534249067306519,-1,-1,1,1,1,-1,0.60091495513916
1,3,1,56,-3,3,1,0.334272146224976,1,1,-1,-1,1,1,0.284249067306519
1,3,1,57,27,27,1,0.384252786636353,-1,1,1,1,-1,-1,0.0842721462249756
1,3,1,62,-9,9,0,0.450490951538086,-1,1,1,1,-1,-1,0.217596054077148
1,3,1,63,3,3,1,0.533804893493652,-1,-1,1,-1,1,1,0.200490951538086
1,3,1,64,-3,3,0,0.717144966125488,1,1,-1,-1,1,-1,0.283804893493652
1,3,1,65,-81,81,0,0.550449371337891,-1,-1,1,1,-1,-1,0.467144966125488
1,3,1,66,81,81,1,0.53425145149231,-1,-1,-1,-1,1,1,0.300449371337891
1,3,1,67,-9,9,0,0.750884056091309,1,1,-1,-1,-1,-1,0.28425145149231
1,3,1,68,3,3,1,0.500467777252197,-1,-1,1,1,-1,-1,0.500884056091309
1,3,1,69,-81,81,0,0.650468349456787,1,1,-1,-1,1,1,0.250467777252197
1,3,1,70,81,81,1,0.751701831817627,-1,-1,1,1,-1,-1,0.400468349456787
1,3,1,71,-9,9,0,0.467152833938599,1,1,-1,-1,1,1,0.501701831817627
1,3,1,72,81,81,1,0.350471019744873,-1,-1,1,1,-1,-1,0.217152833938599
1,3,1,73,-27,27,0,0.434232234954834,1,1,-1,-1,1,1,0.100471019744873
1,3,1,79,-3,3,0,0.650485038757324,1,1,1,-1,1,1,0.350456953048706
1,3,1,80,3,3,1,0.53380298614502,-1,-1,1,1,1,-1,0.400485038757324
1,3,1,81,-9,9,1,0.851389169692993,1,1,-1,-1,1,1,0.28380298614502
1,3,1,82,81,81,1,0.517119169235229,-1,1,1,1,-1,-1,0.601389169692993
1,3,1,83,-9,9,0,0.734286069869995,1,1,1,-1,1,1,0.267119169235229
1,3,1,84,0,0,1,1.38422012329102,-1,-1,1,1,1,-1,0.484286069869995
1,3,1,85,-27,27,0,0.700906038284302,1,1,-1,-1,1,1,1.13422012329102
1,3,1,86,-3,3,0,0.667580127716064,-1,-1,1,1,-1,-1,0.450906038284302
1,3,1,87,9,9,1,0.83379602432251,-1,-1,-1,-1,1,1,0.417580127716064
1,3,1,88,-81,81,0,0.550902843475342,1,1,-1,-1,-1,-1,0.58379602432251
1,3,1,89,27,27,1,0.533828020095825,-1,-1,1,1,-1,-1,0.300902843475342
1,3,1,90,-27,27,0,0.484233140945435,1,1,-1,-1,1,1,0.283828020095825
1,3,1,91,3,3,1,0.550467014312744,-1,-1,1,1,-1,-1,0.234233140945435
1,3,1,92,-81,81,0,0.550488948822021,1,1,-1,-1,1,1,0.300467014312744
1,3,1,93,3,3,1,0.600479125976562,-1,-1,1,1,-1,-1,0.300488948822021
1,3,1,94,-0,0,1,0.550488948822021,1,1,-1,-1,1,1,0.350479125976562
1,3,1,95,3,3,0,0.767555952072144,-1,1,1,1,-1,-1,0.300488948822021
1,3,1,96,3,3,1,0.617913484573364,1,-1,1,-1,1,1,0.517555952072144
1,3,1,97,-3,3,0,0.500469923019409,1,1,-1,1,1,-1,0.367913484573364
1,3,1,98,9,9,1,0.733803749084473,-1,-1,1,1,-1,1,0.250469923019409
1,3,1,99,-3,3,1,0.600466012954712,1,1,-1,-1,1,1,0.483803749084473
1,3,1,4,-81,81,0,0.550481796264648,-1,-1,1,1,-1,-1,0.383795022964478
1,3,1,5,81,81,1,0.517132043838501,-1,-1,-1,-1,1,1,0.300481796264648
1,3,1,6,0,0,1,0.717577219009399,1,1,-1,-1,-1,-1,0.267132043838501
1,3,1,7,-0,0,1,0.884245634078979,1,1,1,1,-1,-1,0.467577219009399
1,3,1,8,3,3,1,0.483805894851685,-1,1,1,1,1,1,0.634245634078979
1,3,1,9,-9,9,1,0.550925254821777,1,1,1,-1,1,1,0.233805894851685
1,3,1,10,3,3,1,0.417600870132446,-1,1,1,1,1,-1,0.300925254821777
1,3,1,11,-27,27,0,0.501336574554443,1,1,1,-1,1,1,0.167600870132446
1,3,1,12,3,3,1,0.500915050506592,-1,-1,1,1,1,-1,0.251336574554443
1,3,1,13,-3,3,1,0.800928831100464,1,1,-1,-1,1,1,0.250915050506592
1,3,1,14,81,81,1,0.467588901519775,-1,1,1,1,-1,-1,0.550928831100464
1,3,1,15,-27,27,0,0.484251976013184,1,1,1,-1,1,1,0.217588901519775
1,3,1,16,3,3,0,0.617127180099487,-1,-1,1,1,1,-1,0.234251976013184
1,3,1,17,-3,3,1,0.450524806976318,1,-1,-1,-1,1,1,0.367127180099487
1,3,1,18,81,81,1,0.483819007873535,-1,1,-1,1,-1,-1,0.200524806976318
1,3,1,19,-9,9,0,0.417208909988403,1,1,1,-1,-1,1,0.233819007873535
1,3,1,20,3,3,1,0.53429651260376,-1,-1,1,1,1,-1,0.167208909988403
1,3,1,21,-27,27,0,0.533796072006226,1,1,-1,-1,1,1,0.28429651260376
1,3,1,22,-9,9,0,0.367791175842285,-1,-1,1,1,-1,-1,0.283796072006226
1,3,1,23,0,0,1,0.500468015670776,-1,-1,-1,-1,1,1,0.117791175842285
1,3,1,24,-3,3,0,0.550493240356445,1,1,-1,-1,-1,-1,0.250468015670776
1,3,1,25,9,9,1,0.400925159454346,-1,-1,1,1,-1,-1,0.300493240356445
1,3,1,26,-81,81,0,0.500974178314209,1,1,-1,-1,1,1,0.150925159454346
1,3,1,27,27,27,1,0.417598247528076,-1,-1,1,1,-1,-1,0.250974178314209
1,3,1,28,-9,9,0,0.467133045196533,1,1,-1,-1,1,1,0.167598247528076
1,3,1,29,81,81,1,0.483823776245117,-1,-1,1,1,-1,-1,0.217133045196533
1,3,1,30,-81,81,0,0.400467157363892,1,1,-1,-1,1,1,0.233823776245117
1,3,1,31,-0,0,1,0.517145872116089,-1,-1,1,1,-1,-1,0.150467157363892
1,3,1,32,-3,3,0,0.534284591674805,-1,1,-1,-1,1,1,0.267145872116089
1,3,1,33,-81,81,0,0.517141580581665,-1,-1,1,-1,-1,-1,0.284284591674805
1,3,1,34,81,81,1,0.433846950531006,-1,-1,-1,-1,1,-1,0.267141580581665
1,3,1,35,-9,9,0,0.417135953903198,1,1,-1,-1,-1,-1,0.183846950531006
1,3,1,36,0,0,0,0.533801078796387,-1,-1,1,1,-1,-1,0.167135953903198
1,3,1,37,-9,9,0,0.517596960067749,1,-1,-1,-1,1,1,0.283801078796387
1,3,1,38,81,81,1,0.41718864440918,-1,-1,-1,1,-1,-1,0.267596960067749
1,3,1,39,3,3,1,0.700473546981812,1,1,-1,-1,-1,1,0.16718864440918
1,3,1,40,-81,81,0,0.767154693603516,1,1,1,1,-1,-1,0.450473546981812
1,3,1,41,81,81,1,0.367604732513428,-1,-1,1,1,1,1,0.517154693603516
1,3,1,42,-9,9,0,0.450898170471191,1,1,-1,-1,1,1,0.117604732513428
1,3,1,43,81,81,1,0.367139577865601,-1,-1,1,1,-1,-1,0.200898170471191
1,3,1,44,-81,81,0,0.534266233444214,1,1,-1,-1,1,1,0.117139577865601
1,3,1,45,3,3,1,0.367165803909302,-1,-1,1,1,-1,-1,0.284266233444214
1,3,1,46,-27,27,0,0.483834981918335,1,1,-1,-1,1,1,0.117165803909302
1,3,1,47,81,81,1,0.46758508682251,-1,-1,1,1,-1,-1,0.233834981918335
1,3,1,48,-3,3,0,0.633798122406006,1,1,-1,-1,1,1,0.21758508682251
1,3,1,49,27,27,1,0.467132091522217,-1,-1,1,1,-1,-1,0.383798122406006
1,3,1,50,-0,0,0,0.617127895355225,1,1,-1,-1,1,1,0.217132091522217
1,3,1,51,9,9,1,0.383812665939331,-1,-1,1,1,-1,-1,0.367127895355225
1,3,1,52,-27,27,0,0.31731104850769,1,1,-1,-1,1,1,0.133812665939331
1,3,1,53,81,81,1,0.550489187240601,-1,-1,1,1,-1,-1,0.0673110485076904
1,3,1,54,-27,27,0,0.51760196685791,1,1,-1,-1,1,1,0.300489187240601
1,3,1,55,-3,3,1,0.700461149215698,-1,-1,1,1,-1,-1,0.26760196685791
1,3,1,56,27,27,1,0.483798742294312,-1,1,-1,-1,1,1,0.450461149215698
1,3,1,57,3,3,1,0.467133760452271,1,1,1,-1,-1,-1,0.233798742294312
1,3,1,58,27,27,1,0.484233140945435,1,1,1,1,1,-1,0.217133760452271
1,3,1,59,-3,3,1,0.71713662147522,1,1,1,1,1,1,0.234233140945435
1,3,1,60,-0,0,0,0.634245872497559,-1,1,1,1,1,1,0.46713662147522
1,3,1,61,3,3,0,0.684216976165771,-1,-1,1,-1,1,1,0.384245872497559
1,3,1,62,-27,27,0,0.367120981216431,1,-1,-1,-1,1,-1,0.434216976165771
1,3,1,63,81,81,1,0.450927972793579,-1,-1,-1,1,-1,-1,0.117120981216431
1,3,1,64,-27,27,0,0.500460147857666,1,1,-1,-1,-1,1,0.200927972793579
1,3,1,65,-9,9,0,0.550472974777222,-1,-1,1,1,-1,-1,0.250460147857666
1,3,1,66,9,9,1,0.484261751174927,-1,-1,-1,-1,1,1,0.300472974777222
1,3,1,67,-27,27,0,0.367157220840454,1,1,-1,-1,-1,-1,0.234261751174927
1,3,1,68,3,3,1,0.700947046279907,-1,-1,1,1,-1,-1,0.117157220840454
1,3,1,69,-0,0,0,0.38424825668335,1,1,-1,-1,1,1,0.450947046279907
1,3,1,70,-9,9,1,0.650908231735229,-1,-1,1,1,-1,-1,0.13424825668335
1,3,1,71,27,27,1,0.467160940170288,-1,1,-1,-1,1,1,0.400908231735229
1,3,1,72,-0,0,1,0.533797025680542,1,1,1,-1,-1,-1,0.217160940170288
1,3,1,73,81,81,1,0.500986814498901,-1,1,1,1,1,-1,0.283797025680542
1,3,1,74,9,9,1,0.350480079650879,1,1,1,-1,1,1,0.250986814498901
1,3,1,75,3,3,0,0.417119979858398,1,1,1,1,1,-1,0.100480079650879
1,3,1,76,-81,81,0,0.467136859893799,1,-1,1,1,1,1,0.167119979858398
1,3,1,77,9,9,0,0.483820676803589,-1,-1,-1,1,1,1,0.217136859893799
1,3,1,78,9,9,1,0.517117738723755,1,-1,-1,-1,-1,1,0.233820676803589
1,3,1,79,-9,9,0,0.350509166717529,1,1,-1,1,-1,-1,0.267117738723755
1,3,1,80,-81,81,0,0.483801126480103,-1,-1,1,1,-1,1,0.100509166717529
1,3,1,81,9,9,1,0.467127799987793,-1,-1,-1,-1,1,1,0.233801126480103
1,3,1,82,-27,27,0,0.467613220214844,1,1,-1,-1,-1,-1,0.217127799987793
1,3,1,83,3,3,1,0.417602777481079,-1,-1,1,1,-1,-1,0.217613220214844
1,3,1,84,-27,27,0,0.400498390197754,1,1,-1,-1,1,1,0.167602777481079
1,3,1,89,-3,3,0,0.500926971435547,-1,-1,1,1,-1,-1,0.183799028396606
1,3,1,90,-81,81,0,0.517618894577026,-1,-1,-1,-1,1,1,0.250926971435547
1,3,1,91,9,9,0,0.634256839752197,-1,-1,-1,-1,-1,-1,0.267618894577026
1,3,1,92,-27,27,0,0.400498151779175,1,-1,-1,-1,-1,-1,0.384256839752197
1,3,1,93,0,0,0,0.551578998565674,-1,-1,-1,1,-1,-1,0.150498151779175
1,3,1,94,-81,81,0,0.450484991073608,1,-1,-1,-1,-1,1,0.301578998565674
1,3,1,95,9,9,1,0.417908191680908,-1,-1,-1,1,-1,-1,0.200484991073608
1,3,1,96,-9,9,0,0.535134315490723,1,1,-1,-1,-1,1,0.167908191680908
1,3,1,97,0,0,1,0.467129230499268,-1,-1,1,1,-1,-1,0.285134315490723
1,3,1,98,-9,9,0,0.617132902145386,1,1,-1,-1,1,1,0.217129230499268
1,3,1,99,27,27,1,0.400919914245605,-1,-1,1,1,-1,-1,0.367132902145386
1,3,2,4,-81,81,0,0.450918912887573,1,1,1,-1,1,1,0.183828115463257
1,3,2,5,0,0,0,0.51715087890625,-1,-1,1,1,1,-1,0.200918912887573
1,3,2,6,-81,81,0,0.683806896209717,1,-1,-1,-1,1,1,0.26715087890625
1,3,2,7,-3,3,1,0.61760687828064,-1,-1,-1,1,-1,-1,0.433806896209717
1,3,2,8,-27,27,0,0.585173606872559,-1,1,-1,-1,-1,1,0.36760687828064
1,3,2,9,81,81,1,0.384226083755493,-1,-1,1,-1,-1,-1,0.335173606872559
1,3,2,10,-81,81,0,0.500923871994019,1,1,-1,-1,1,-1,0.134226083755493
1,3,2,11,9,9,1,0.517557144165039,-1,-1,1,1,-1,-1,0.250923871994019
1,3,2,12,9,9,1,0.55048394203186,1,1,-1,-1,1,1,0.267557144165039
1,3,2,13,-81,81,0,0.583887100219727,1,1,1,1,-1,-1,0.30048394203186
1,3,2,14,27,27,1,0.5346360206604,-1,-1,1,1,1,1,0.333887100219727
1,3,2,15,-27,27,0,0.500465631484985,1,1,-1,-1,1,1,0.2846360206604
1,3,2,16,9,9,1,0.46762490272522,-1,-1,1,1,-1,-1,0.250465631484985
1,3,2,17,-81,81,0,0.533782958984375,1,1,-1,-1,1,1,0.21762490272522
1,3,2,23,3,3,1,0.38428807258606,-1,1,1,1,1,1,1.08376097679138
1,3,2,24,-27,27,0,0.367591381072998,1,1,1,-1,1,1,0.13428807258606
1,3,2,25,-27,27,1,0.384264707565308,-1,-1,1,1,1,-1,0.117591381072998
1,3,2,26,9,9,1,0.567172765731812,-1,1,-1,-1,1,1,0.134264707565308
1,3,2,27,-27,27,0,0.568452119827271,1,1,1,-1,-1,-1,0.317172765731812
1,3,2,28,9,9,1,0.533806562423706,-1,-1,1,1,1,-1,0.318452119827271
1,3,2,29,-81,81,0,0.600472927093506,1,1,-1,-1,1,1,0.283806562423706
1,3,2,30,27,27,1,0.284305810928345,-1,-1,1,1,-1,-1,0.350472927093506
1,3,2,31,-27,27,0,0.250915050506592,1,1,-1,-1,1,1,0.0343058109283447
1,3,2,32,9,9,1,0.550935029983521,-1,-1,1,1,-1,-1,0.000915050506591797
1,3,2,33,-3,3,1,0.717112064361572,1,1,-1,-1,1,1,0.300935029983521
1,3,2,34,9,9,1,0.517141103744507,-1,1,1,1,-1,-1,0.467112064361572
1,3,2,35,-27,27,0,0.550487518310547,1,1,1,-1,1,1,0.267141103744507
1,3,2,36,-27,27,0,0.517132043838501,-1,-1,1,1,1,-1,0.300487518310547
1,3,2,37,81,81,1,0.484808921813965,-1,-1,-1,-1,1,1,0.267132043838501
1,3,2,38,-27,27,0,0.450886249542236,1,1,-1,-1,-1,-1,0.234808921813965
1,3,2,39,3,3,1,0.400498867034912,-1,-1,1,1,-1,-1,0.200886249542236
1,3,2,40,-0,0,1,0.467134952545166,1,1,-1,-1,1,1,0.150498867034912
1,3,2,41,3,3,1,0.533789873123169,-1,1,1,1,-1,-1,0.217134952545166
1,3,2,42,81,81,1,0.567568778991699,1,1,1,-1,1,1,0.283789873123169
1,3,2,43,-9,9,1,0.467587947845459,1,1,1,1,1,-1,0.317568778991699
1,3,2,44,0,0,1,0.768121957778931,-1,1,1,1,1,1,0.217587947845459
1,3,2,45,-9,9,0,0.667579889297485,1,1,1,-1,1,1,0.518121957778931
1,3,2,46,9,9,1,0.483803033828735,-1,-1,1,1,1,-1,0.417579889297485
1,3,2,47,-27,27,0,0.484245300292969,1,1,-1,-1,1,1,0.233803033828735
1,3,2,48,27,27,1,0.484248876571655,-1,-1,1,1,-1,-1,0.234245300292969
1,3,2,49,-9,9,0,0.61758017539978,1,1,-1,-1,1,1,0.234248876571655
1,3,2,50,27,27,1,1.2337760925293,-1,-1,1,1,-1,-1,0.36758017539978
1,3,2,51,-9,9,0,0.417140007019043,1,1,-1,-1,1,1,0.983776092529297
1,3,2,52,-9,9,0,0.617160081863403,-1,-1,1,1,-1,-1,0.167140007019043
1,3,2,53,-0,0,0,0.667135000228882,-1,-1,-1,-1,1,1,0.367160081863403
1,3,2,54,-3,3,0,0.534260034561157,-1,-1,-1,-1,-1,-1,0.417135000228882
1,3,2,55,-3,3,1,0.617138862609863,-1,-1,-1,-1,-1,-1,0.284260034561157
1,3,2,56,81,81,1,0.517161130905151,-1,1,-1,-1,-1,-1,0.367138862609863
1,3,2,57,-0,0,1,0.583808898925781,1,1,1,-1,-1,-1,0.267161130905151
1,3,2,58,81,81,1,0.500465869903564,-1,1,1,1,1,-1,0.333808898925781
1,3,2,59,-9,9,1,0.683796882629395,1,1,1,-1,1,1,0.250465869903564
1,3,2,60,9,9,0,0.584280252456665,-1,1,1,1,1,-1,0.433796882629395
1,3,2,61,-9,9,0,0.567140102386475,1,-1,1,-1,1,1,0.334280252456665
1,3,2,62,3,3,1,0.700459241867065,-1,-1,-1,1,1,-1,0.317140102386475
1,3,2,63,0,0,1,0.483798980712891,1,1,-1,-1,-1,1,0.450459241867065
1,3,2,64,-81,81,0,0.484258890151978,1,1,1,1,-1,-1,0.233798980712891
1,3,2,65,27,27,1,0.500470876693726,-1,-1,1,1,1,1,0.234258890151978
1,3,2,66,-0,0,0,0.600458145141602,1,1,-1,-1,1,1,0.250470876693726
1,3,2,67,81,81,1,0.533807754516602,-1,-1,1,1,-1,-1,0.350458145141602
1,3,2,68,-3,3,0,0.617154836654663,1,1,-1,-1,1,1,0.283807754516602
1,3,2,69,9,9,1,0.487643003463745,-1,-1,1,1,-1,-1,0.367154836654663
1,3,2,70,-81,81,0,0.533808946609497,1,1,-1,-1,1,1,0.237643003463745
1,3,2,71,3,3,1,0.567186832427979,-1,-1,1,1,-1,-1,0.283808946609497
1,3,2,72,-0,0,1,0.533807992935181,1,1,-1,-1,1,1,0.317186832427979
1,3,2,73,81,81,1,0.634246349334717,-1,1,1,1,-1,-1,0.283807992935181
1,3,2,74,-27,27,0,0.533821821212769,1,1,1,-1,1,1,0.384246349334717
1,3,2,75,3,3,1,0.567154884338379,-1,-1,1,1,1,-1,0.283821821212769
1,3,2,76,-81,81,0,0.617130041122437,1,1,-1,-1,1,1,0.317154884338379
1,3,2,77,0,0,1,0.500458240509033,-1,-1,1,1,-1,-1,0.367130041122437
1,3,2,78,-3,3,1,0.750466108322144,1,1,-1,-1,1,1,0.250458240509033
1,3,2,79,-3,3,0,0.583850145339966,-1,1,1,1,-1,-1,0.500466108322144
1,3,2,80,-27,27,0,0.58421516418457,-1,-1,1,-1,1,1,0.333850145339966
1,3,2,81,3,3,1,0.534258127212524,-1,-1,-1,-1,1,-1,0.33421516418457
1,3,2,82,81,81,1,0.533797025680542,1,1,-1,-1,-1,-1,0.284258127212524
1,3,2,83,27,27,1,0.334261894226074,1,1,1,1,-1,-1,0.283797025680542
1,3,2,84,-81,81,0,0.5175940990448,1,1,1,1,1,1,0.0842618942260742
1,3,2,85,81,81,1,0.46766996383667,-1,-1,1,1,1,1,0.2675940990448
1,3,2,86,27,27,1,0.567747116088867,1,1,-1,-1,1,1,0.21766996383667
1,3,2,87,-9,9,1,0.450501203536987,1,1,1,1,-1,-1,0.317747116088867
1,3,2,88,0,0,0,0.800910949707031,-1,1,1,1,1,1,0.200501203536987
1,3,2,89,-3,3,1,0.784240961074829,1,-1,1,-1,1,1,0.550910949707031
1,3,2,90,81,81,1,0.33426308631897,-1,1,-1,1,1,-1,0.534240961074829
1,3,2,91,-9,9,0,0.517142772674561,1,1,1,-1,-1,1,0.0842630863189697
1,3,2,92,3,3,1,0.500481843948364,-1,-1,1,1,1,-1,0.267142772674561
1,3,2,93,-0,0,1,0.550465106964111,1,1,-1,-1,1,1,0.250481843948364
1,3,2,94,9,9,1,0.300469160079956,-1,1,1,1,-1,-1,0.300465106964111
1,3,2,95,-27,27,0,0.550894021987915,1,1,1,-1,1,1,0.0504691600799561
1,3,2,96,-9,9,0,0.650918960571289,-1,-1,1,1,1,-1,0.300894021987915
1,3,2,97,27,27,1,0.517161130905151,-1,-1,-1,-1,1,1,0.400918960571289
1,3,2,98,81,81,1,0.550485134124756,1,1,-1,-1,-1,-1,0.267161130905151
1,3,2,99,-3,3,1,0.584242343902588,1,1,1,1,-1,-1,0.300485134124756
1,3,3,4,-9,9,0,0.867574691772461,-1,1,1,-1,-1,1,0.284248828887939
1,3,3,5,-9,9,0,0.650911808013916,-1,-1,1,-1,1,-1,0.617574691772461
1,3,3,6,9,9,1,0.551773071289062,-1,-1,-1,-1,1,-1,0.400911808013916
1,3,3,7,-81,81,0,0.717602014541626,1,1,-1,-1,-1,-1,0.301773071289062
1,3,3,8,-0,0,0,0.733786106109619,-1,-1,1,1,-1,-1,0.467602014541626
1,3,3,9,-9,9,0,0.683787822723389,-1,-1,-1,-1,1,1,0.483786106109619
1,3,3,10,81,81,1,0.484257936477661,-1,-1,-1,-1,-1,-1,0.433787822723389
1,3,3,11,-81,81,0,0.700907945632935,1,1,-1,-1,-1,-1,0.234257936477661
1,3,3,12,-27,27,0,0.933784008026123,-1,-1,1,1,-1,-1,0.450907945632935
1,3,3,13,81,81,1,0.500914812088013,-1,-1,-1,-1,1,1,0.683784008026123
1,3,3,14,81,81,1,0.400924921035767,1,1,-1,-1,-1,-1,0.250914812088013
1,3,3,15,9,9,1,0.500459909439087,1,1,1,1,-1,-1,0.150924921035767
1,3,3,16,27,27,1,0.517608880996704,1,1,1,1,1,1,0.250459909439087
1,3,3,17,-3,3,1,0.617184162139893,1,1,1,1,1,1,0.267608880996704
1,3,3,18,27,27,1,0.384262561798096,-1,1,1,1,1,1,0.367184162139893
1,3,3,19,-27,27,0,0.617866039276123,1,1,1,-1,1,1,0.134262561798096
1,3,3,20,-3,3,0,0.617793083190918,-1,-1,1,1,1,-1,0.367866039276123
1,3,3,21,81,81,1,0.48421311378479,-1,-1,-1,-1,1,1,0.367793083190918
1,3,3,22,3,3,0,0.567586898803711,1,1,-1,-1,-1,-1,0.23421311378479
1,3,3,23,-81,81,0,0.433815956115723,1,-1,1,1,-1,-1,0.317586898803711
1,3,3,24,27,27,1,0.433825969696045,-1,-1,-1,1,1,1,0.183815956115723
1,3,3,25,-81,81,0,0.383826971054077,1,1,-1,-1,-1,1,0.183825969696045
1,3,3,26,9,9,1,0.584230899810791,-1,-1,1,1,-1,-1,0.133826971054077
1,3,3,27,81,81,1,0.533801078796387,1,1,-1,-1,1,1,0.334230899810791
1,3,3,33,3,3,0,1.200434923172,1,-1,-1,-1,1,-1,0.3838210105896
1,3,3,34,-0,0,0,0.600486993789673,1,-1,-1,1,-1,-1,0.950434923171997
1,3,3,35,-9,9,0,0.633795499801636,-1,-1,-1,1,-1,1,0.350486993789673
1,3,3,36,-0,0,1,0.433817863464355,-1,-1,-1,-1,-1,1,0.383795499801636
1,3,3,37,-81,81,0,0.467588901519775,-1,1,-1,-1,-1,-1,0.183817863464355
1,3,3,38,-3,3,0,0.51714825630188,-1,-1,1,-1,-1,-1,0.217588901519775
1,3,3,39,27,27,1,0.500459909439087,-1,-1,-1,-1,1,-1,0.26714825630188
1,3,3,40,-0,0,0,0.584268569946289,1,1,-1,-1,-1,-1,0.250459909439087
1,3,3,41,-27,27,0,0.417591094970703,-1,-1,1,1,-1,-1,0.334268569946289
1,3,3,42,3,3,0,0.833815097808838,-1,-1,-1,-1,1,1,0.167591094970703
1,3,3,43,9,9,1,0.500494956970215,1,-1,-1,-1,-1,-1,0.583815097808838
1,3,3,44,0,0,1,0.400473117828369,1,1,-1,1,-1,-1,0.250494956970215
1,3,3,45,-81,81,0,0.400902986526489,1,1,1,1,-1,1,0.150473117828369
1,3,3,46,3,3,0,0.717127799987793,-1,-1,1,1,1,1,0.150902986526489
1,3,3,47,-3,3,1,0.550945997238159,1,-1,-1,-1,1,1,0.467127799987793
1,3,3,48,-81,81,0,0.53382396697998,-1,1,-1,1,-1,-1,0.300945997238159
1,3,3,49,-9,9,0,0.550473928451538,-1,-1,1,-1,-1,1,0.28382396697998
1,3,3,50,3,3,0,0.850900888442993,-1,-1,-1,-1,1,-1,0.300473928451538
1,3,3,51,81,81,1,0.617603063583374,1,-1,-1,-1,-1,-1,0.600900888442993
1,3,3,52,-9,9,1,0.567149877548218,1,1,-1,1,-1,-1,0.367603063583374
1,3,3,53,3,3,1,0.600479125976562,-1,1,1,1,-1,1,0.317149877548218
1,3,3,54,27,27,1,0.467127561569214,1,1,1,-1,1,1,0.350479125976562
1,3,3,55,-3,3,1,0.767122745513916,1,1,1,1,1,-1,0.217127561569214
1,3,3,56,0,0,0,0.600954532623291,-1,1,1,1,1,1,0.517122745513916
1,3,3,57,9,9,1,0.517761468887329,1,-1,1,-1,1,1,0.350954532623291
1,3,3,58,3,3,1,0.983787775039673,1,1,-1,1,1,-1,0.267761468887329
1,3,3,59,-3,3,1,0.883790016174316,1,1,1,1,-1,1,0.733787775039673
1,3,3,60,-81,81,0,0.517142057418823,-1,1,1,1,1,1,0.633790016174316
1,3,3,61,27,27,1,0.517131805419922,-1,-1,1,-1,1,1,0.267142057418823
1,3,3,62,81,81,1,0.533811330795288,1,1,-1,-1,1,-1,0.267131805419922
1,3,3,63,-0,0,1,0.567131996154785,1,1,1,1,-1,-1,0.283811330795288
1,3,3,64,-9,9,0,1.2675769329071,-1,1,1,1,1,1,0.317131996154785
1,3,3,65,-81,81,0,0.600469350814819,-1,-1,1,-1,1,1,1.0175769329071
1,3,3,66,-27,27,0,0.583783149719238,-1,-1,-1,-1,1,-1,0.350469350814819
1,3,3,67,-3,3,1,0.467562198638916,-1,-1,-1,-1,-1,-1,0.333783149719238
1,3,3,68,81,81,1,0.517560958862305,-1,1,-1,-1,-1,-1,0.217562198638916
1,3,3,69,-9,9,0,0.533797979354858,1,1,1,-1,-1,-1,0.267560958862305
1,3,3,70,-81,81,0,0.501063108444214,-1,-1,1,1,1,-1,0.283797979354858
1,3,3,71,-27,27,0,0.26715350151062,-1,-1,-1,-1,1,1,0.251063108444214
1,3,3,72,81,81,1,0.367618322372437,-1,-1,-1,-1,-1,-1,0.0171535015106201
1,3,3,73,-9,9,0,0.417617321014404,1,1,-1,-1,-1,-1,0.117618322372437
1,3,3,74,-27,27,0,0.417145967483521,-1,-1,1,1,-1,-1,0.167617321014404
1,3,3,75,81,81,1,0.400943994522095,-1,-1,-1,-1,1,1,0.167145967483521
1,3,3,76,27,27,1,0.450925827026367,1,1,-1,-1,-1,-1,0.150943994522095
1,3,3,77,-27,27,0,0.517590045928955,1,1,1,1,-1,-1,0.200925827026367
1,3,3,78,-3,3,1,0.500488996505737,-1,-1,1,1,1,1,0.267590045928955
1,3,3,79,0,0,1,0.567196130752563,-1,1,-1,-1,1,1,0.250488996505737
1,3,3,80,3,3,1,0.300950527191162,1,1,1,-1,-1,-1,0.317196130752563
1,3,3,81,9,9,1,0.300470113754272,1,1,1,1,1,-1,0.0509505271911621
1,3,3,82,27,27,1,0.450892210006714,1,1,1,1,1,1,0.0504701137542725
1,3,3,83,9,9,1,0.400464057922363,1,1,1,1,1,1,0.200892210006714
1,3,3,84,-3,3,0,0.300927877426147,1,1,1,1,1,1,0.150464057922363
1,3,3,85,81,81,1,0.367605209350586,-1,-1,1,1,1,1,0.0509278774261475
1,3,3,86,-3,3,1,0.767579793930054,1,1,-1,-1,1,1,0.117605209350586
1,3,3,87,-27,27,0,0.617132186889648,-1,1,1,1,-1,-1,0.517579793930054
1,3,3,88,9,9,1,0.534256219863892,-1,-1,1,-1,1,1,0.367132186889648
1,3,3,89,-81,81,0,0.517156839370728,1,1,-1,-1,1,-1,0.284256219863892
1,3,3,90,9,9,1,0.567141056060791,-1,-1,1,1,-1,-1,0.267156839370728
1,3,3,91,-3,3,1,0.367597818374634,1,1,-1,-1,1,1,0.317141056060791
1,3,3,92,27,27,1,0.617593050003052,-1,1,1,1,-1,-1,0.117597818374634
1,3,3,93,-27,27,0,0.484253883361816,1,1,1,-1,1,1,0.367593050003052
1,3,3,94,27,27,1,0.434261083602905,-1,-1,1,1,1,-1,0.234253883361816
1,3,3,95,-0,0,0,0.550910949707031,1,1,-1,-1,1,1,0.184261083602905
1,3,3,96,9,9,1,0.767575979232788,-1,-1,1,1,-1,-1,0.300910949707031
1,3,3,97,-27,27,0,0.483851909637451,1,1,-1,-1,1,1,0.517575979232788
1,3,3,98,27,27,1,0.433817863464355,-1,-1,1,1,-1,-1,0.233851909637451
1,3,3,99,9,9,1,0.317630052566528,1,1,-1,-1,1,1,0.183817863464355
1,3,4,4,-27,27,0,0.500924110412598,-1,-1,-1,-1,1,-1,0.533802270889282
1,3,4,5,-81,81,0,0.70093297958374,-1,-1,-1,-1,-1,-1,0.250924110412598
1,3,4,6,-27,27,0,0.484237909317017,-1,-1,-1,-1,-1,-1,0.45093297958374
1,3,4,7,9,9,1,0.550920963287354,-1,-1,-1,-1,-1,-1,0.234237909317017
1,3,4,8,3,3,1,0.550932645797729,1,1,-1,-1,-1,-1,0.300920963287354
1,3,4,9,3,3,1,0.667577028274536,1,1,1,1,-1,-1,0.300932645797729
1,3,4,10,9,9,1,0.567137002944946,1,1,1,1,1,1,0.417577028274536
1,3,4,11,3,3,1,0.700474262237549,1,1,1,1,1,1,0.317137002944946
1,3,4,12,81,81,1,0.550525903701782,1,1,1,1,1,1,0.450474262237549
1,3,4,13,81,81,1,0.534265279769897,1,1,1,1,1,1,0.300525903701782
1,3,4,14,3,3,1,0.501513957977295,1,1,1,1,1,1,0.284265279769897
1,3,4,15,-81,81,0,0.517138004302979,1,1,1,1,1,1,0.251513957977295
1,3,4,16,-9,9,1,0.467589378356934,-1,-1,1,1,1,1,0.267138004302979
1,3,4,17,-81,81,0,0.367166996002197,-1,1,-1,-1,1,1,0.217589378356934
1,3,4,18,-81,81,0,0.900466918945312,-1,-1,1,-1,-1,-1,0.117166996002197
1,3,4,19,3,3,1,0.434252977371216,-1,-1,-1,-1,1,-1,0.650466918945312
1,3,4,20,0,0,1,0.417593002319336,1,1,-1,-1,-1,-1,0.184252977371216
1,3,4,21,9,9,1,0.683840274810791,1,1,1,1,-1,-1,0.167593002319336
1,3,4,22,9,9,1,0.96712327003479,1,1,1,1,1,1,0.433840274810791
1,3,4,23,81,81,1,0.467129945755005,1,1,1,1,1,1,0.71712327003479
1,3,4,24,81,81,1,0.567600965499878,1,1,1,1,1,1,0.217129945755005
1,3,4,25,9,9,1,0.434270858764648,1,1,1,1,1,1,0.317600965499878
1,3,4,26,27,27,1,0.484254837036133,1,1,1,1,1,1,0.184270858764648
1,3,4,27,81,81,1,0.38379979133606,1,1,1,1,1,1,0.234254837036133
1,3,4,28,3,3,1,0.501240491867065,1,1,1,1,1,1,0.13379979133606
1,3,4,29,9,9,1,0.517157077789307,1,1,1,1,1,1,0.251240491867065
1,3,4,30,0,0,1,0.584965944290161,1,1,1,1,1,1,0.267157077789307
1,3,4,31,-0,0,1,0.850473642349243,1,1,1,1,1,1,0.334965944290161
1,3,4,32,-9,9,1,0.484252214431763,-1,1,1,1,1,1,0.600473642349243
1,3,4,33,27,27,1,0.733795166015625,-1,1,1,-1,1,1,0.234252214431763
1,3,4,34,27,27,1,0.484245777130127,1,1,1,-1,1,-1,0.483795166015625
