correct,rt,stimulus,isi,subj_idx,session,trial,response,prevresp,prev2resp,prev3resp,prevstim,prev2stim,prev3stim,prevrt
1,0.63248463167929,-1,5.844,109,1,2,0,1,1,-1,1,1,-1,0.609001968592933
1,0.68090458937877,1,5.755,109,1,3,1,-1,1,1,-1,1,1,-0.387463402947597
1,0.769877767063008,1,5.427,109,1,4,1,1,-1,1,1,-1,1,-0.126578074136671
1,0.529089777772242,1,6.121,109,1,5,1,1,1,-1,1,1,-1,0.307756125745271
1,0.571196107576725,1,5.196,109,1,6,1,1,1,1,1,1,1,-1.01874725862
1,0.542837593739023,-1,6.218,109,1,7,0,1,1,1,1,1,1,-0.74793032639849
1,0.691418156141481,-1,5.462,109,1,8,0,-1,1,1,-1,1,1,-0.928024971306754
1,0.527600655765127,-1,5.695,109,1,9,0,-1,-1,1,-1,-1,1,-0.0723874515775529
1,0.896662284326339,1,6.378,109,1,10,1,-1,-1,-1,-1,-1,-1,-1.0287151804128
0,0.749238037345094,1,6.021,109,1,11,0,1,-1,-1,1,-1,-1,0.846909401896884
1,0.537355524317718,-1,5.967,109,1,12,0,-1,1,-1,1,1,-1,0.211647652698477
1,0.524452793050841,-1,6.41,109,1,13,0,-1,-1,1,-1,1,1,-0.963922841401377
1,0.60006718949171,1,5.876,109,1,14,1,-1,-1,-1,-1,-1,1,-1.04987934368642
1,1.05043538420796,1,5.829,109,1,15,1,1,-1,-1,1,-1,-1,-0.573541628541792
1,0.562061874064057,-1,5.169,109,1,16,0,1,1,-1,1,1,-1,1.40669256068448
1,0.485958679903888,-1,6.24,109,1,17,0,-1,1,1,-1,1,1,-0.804943413390891
1,0.552532259677719,-1,6.34,109,1,18,0,-1,-1,1,-1,-1,1,-1.31948445662345
1,0.737030545729795,1,6.467,109,1,19,1,-1,-1,-1,-1,-1,-1,-0.865420517218872
1,0.492890044523847,-1,5.759,109,1,20,0,1,-1,-1,1,-1,-1,0.153549712998896
1,0.514994693071458,-1,5.306,109,1,21,0,-1,1,-1,-1,1,-1,-1.26939662242227
1,0.566376740589476,-1,5.399,109,1,22,0,-1,-1,1,-1,-1,1,-1.11424217814344
0,0.774528616681891,-1,5.246,109,1,23,1,-1,-1,-1,-1,-1,-1,-0.777896770204213
1,0.776983077913428,1,6.361,109,1,24,1,1,-1,-1,-1,-1,-1,0.329056824484414
1,0.766227137121859,-1,5.825,109,1,25,0,1,1,-1,1,-1,-1,0.340246649979178
0,0.950936188714877,-1,5.591,109,1,26,1,-1,1,1,-1,1,-1,0.290946053439361
1,0.666098426947428,1,6.098,109,1,27,1,1,-1,1,-1,-1,1,1.05474994324347
0,0.928840013468289,-1,5.237,109,1,28,1,1,1,-1,1,-1,-1,-0.204330377070134
1,0.852836424082852,1,5.104,109,1,29,1,1,1,1,-1,1,-1,0.971601755041945
1,0.751635750992136,-1,5.254,109,1,30,0,1,1,1,1,-1,1,0.669682551178349
1,0.618391028172482,1,6.427,109,1,31,1,-1,1,1,-1,1,-1,0.222947571941541
1,0.566394894442965,1,6.405,109,1,32,1,1,-1,1,1,-1,1,-0.467161529720078
1,0.588337597007921,-1,5.164,109,1,33,0,1,1,-1,1,1,-1,-0.77778341321858
0,0.591289036357921,1,5.017,109,1,34,0,-1,1,1,-1,1,1,-0.643357548156176
1,0.738289514943062,1,6.034,109,1,35,1,-1,-1,1,1,-1,1,-0.625660043788262
1,0.541174698759278,1,5.105,109,1,36,1,1,-1,-1,1,1,-1,0.159585734746098
0,0.583194968976386,1,6.11,109,1,37,0,1,1,-1,1,1,1,-0.938875547075434
0,0.63240818856957,1,6.308,109,1,38,0,-1,1,1,1,1,1,-0.674407102056406
1,0.551529119783481,-1,5.221,109,1,39,0,-1,-1,1,1,1,1,-0.38789087374089
0,0.80196253473332,1,6.172,109,1,40,0,-1,-1,-1,-1,1,1,-0.871847249837985
1,0.620683099816233,1,5.975,109,1,41,1,-1,-1,-1,1,-1,1,0.452157935325943
1,0.466162222868661,-1,5.135,109,1,42,0,1,-1,-1,1,1,-1,-0.454077147479525
1,0.871245269726387,-1,5.76,109,1,43,0,-1,1,-1,-1,1,1,-1.46657332084193
1,0.631048001974705,1,5.021,109,1,44,1,-1,-1,1,-1,-1,1,0.745210388472135
1,1.00193677256084,1,5.954,109,1,45,1,1,-1,-1,1,-1,-1,-0.395505705256693
1,0.470491183124068,-1,6.427,109,1,46,0,1,1,-1,1,1,-1,1.23951581120047
1,0.884225173748746,1,5.965,109,1,47,1,-1,1,1,-1,1,1,-1.43388221571255
1,0.978168183601156,1,5.807,109,1,48,1,1,-1,1,1,-1,1,0.797511112632267
1,0.567266648468831,-1,5.121,109,1,49,0,1,1,-1,1,1,-1,1.15460599947185
1,1.16967972455222,1,6.117,109,1,50,1,-1,1,1,-1,1,1,-0.77234424536937
1,0.725792108257338,-1,6.161,109,1,51,0,1,-1,1,1,-1,1,1.78697148808172
1,0.731972823322394,1,5.415,109,1,52,1,-1,1,-1,-1,1,-1,0.0992065854606148
1,0.758562032938244,-1,5.037,109,1,53,0,1,-1,1,1,-1,1,0.129196529461089
1,0.601159468064907,-1,6.479,109,1,54,0,-1,1,-1,-1,1,-1,0.255388346197181
1,0.531102185340387,-1,5.578,109,1,55,0,-1,-1,1,-1,-1,1,-0.567109860095797
1,0.578793787226459,1,5.368,109,1,56,1,-1,-1,-1,-1,-1,-1,-1.00532103785396
1,0.972856883577151,-1,5.659,109,1,57,0,1,-1,-1,1,-1,-1,-0.701198247539505
1,0.581503998993867,1,5.285,109,1,58,1,-1,1,-1,-1,1,-1,1.13535022963743
1,0.553940994828736,-1,5.41,109,1,59,0,1,-1,1,1,-1,1,-0.684676484809594
1,0.663199348157832,1,6.028,109,1,60,1,-1,1,-1,-1,1,-1,-0.856414962001269
1,1.03228644631326,-1,6.008,109,1,61,0,1,-1,1,1,-1,1,-0.219756623236134
1,0.567107765886249,1,5.411,109,1,62,1,-1,1,-1,-1,1,-1,1.34505396062047
1,1.047039244595,1,5.427,109,1,63,1,1,-1,1,1,-1,1,-0.773334944310929
1,0.779931370504528,1,6.053,109,1,64,1,1,1,-1,1,1,-1,1.39523977782108
1,1.39218364966564,-1,5.105,109,1,65,0,1,1,1,1,1,1,0.353641201571839
0,1.21897571836689,1,5.788,109,1,66,0,-1,1,1,-1,1,1,2.40285579155272
1,0.603063105831097,-1,6.312,109,1,67,0,-1,-1,1,1,-1,1,1.93296770893239
1,0.564264667769748,-1,5.221,109,1,68,0,-1,-1,-1,-1,1,-1,-0.555928368595419
1,0.651387793803224,1,6.222,109,1,69,1,-1,-1,-1,-1,-1,1,-0.791109919254372
1,0.90521099502439,-1,5.948,109,1,70,0,1,-1,-1,1,-1,-1,-0.283311837640958
1,0.593716073120959,1,5.061,109,1,71,1,-1,1,-1,-1,1,-1,0.880467818544251
1,0.560343343946442,-1,5.948,109,1,72,0,1,-1,1,1,-1,1,-0.611173040214792
1,0.526709436027886,-1,5.333,109,1,73,0,-1,1,-1,-1,1,-1,-0.815773442854034
1,0.991147888212254,1,5.177,109,1,74,1,-1,-1,1,-1,-1,1,-1.03469431547775
1,0.745600847003516,1,5.797,109,1,75,1,1,-1,-1,1,-1,-1,1.20122656106528
1,0.543830782734403,-1,5.203,109,1,76,0,1,1,-1,1,1,-1,0.194437119396521
1,0.585751324607372,-1,6.39,109,1,77,0,-1,1,1,-1,1,1,-0.92156014562098
1,0.50297558760667,1,5.149,109,1,78,1,-1,-1,1,-1,-1,1,-0.658938565308455
1,0.505895865342609,-1,5.167,109,1,79,0,1,-1,-1,1,-1,-1,-1.19775998031253
1,0.655225930199776,1,5.885,109,1,80,1,-1,1,-1,-1,1,-1,-1.17728557175829
1,0.656628022699806,-1,5.177,109,1,81,0,1,-1,1,1,-1,1,-0.26253419530603
1,0.661925845205587,1,5.573,109,1,82,1,-1,1,-1,-1,1,-1,-0.254974345427635
1,0.516920379729527,-1,5.011,109,1,83,0,1,-1,1,1,-1,1,-0.226554370395252
1,0.978492715314133,1,6.037,109,1,84,1,-1,1,-1,-1,1,-1,-1.10104248006163
1,0.671945681951001,1,5.278,109,1,85,1,1,-1,1,1,-1,1,1.15577917611476
1,0.64458170655962,1,5.565,109,1,86,1,1,1,-1,1,1,-1,-0.173419865220069
1,1.27771892436158,-1,5.48,109,1,87,0,1,1,1,1,1,1,-0.320459248723069
1,0.777300117357299,1,6.402,109,1,88,1,-1,1,1,-1,1,1,2.09942169618159
1,0.825602154938679,-1,6.221,109,1,89,0,1,-1,1,1,-1,1,0.341689446147232
0,0.638438588828649,-1,5.015,109,1,90,1,-1,1,-1,-1,1,-1,0.55490149458147
1,0.74038897882383,-1,5.928,109,1,91,0,1,-1,1,-1,-1,1,-0.354326539704424
1,0.59673306091463,1,6.211,109,1,92,1,-1,1,-1,-1,-1,-1,0.169628580001919
1,0.799159357571625,1,5.167,109,1,93,1,1,-1,1,1,-1,-1,-0.593246954545735
1,0.705348181443696,1,5.395,109,1,94,1,1,1,-1,1,1,-1,0.439774292359864
1,0.828748216748863,1,5.007,109,1,95,1,1,1,1,1,1,1,-0.00184275453249329
1,0.71485628861501,-1,5.363,109,1,96,0,1,1,1,1,1,1,0.568352728005269
1,0.593050904538359,-1,5.46,109,1,97,0,-1,1,1,-1,1,1,0.0455128636046579
1,0.713513451693871,-1,5.823,109,1,98,0,-1,-1,1,-1,-1,1,-0.61513753771723
1,0.634970521605283,-1,6.129,109,1,99,0,-1,-1,-1,-1,-1,-1,0.0388631247762196
1,0.814179007656094,-1,6.188,109,1,100,0,-1,-1,-1,-1,-1,-1,-0.373590361688388
1,0.563743159900696,-1,5.639,109,2,2,0,1,-1,-1,1,-1,-1,-0.0912747783390351
1,0.618258611908459,1,5.656,109,2,3,1,-1,1,-1,-1,1,-1,-0.794380091374211
1,0.919030341089638,1,5.121,109,2,4,1,1,-1,1,1,-1,1,-0.46791891434563
1,0.533912817502824,-1,6.416,109,2,5,0,1,1,-1,1,1,-1,0.934051843960069
1,0.52717001588826,-1,5.01,109,2,6,0,-1,1,1,-1,1,1,-0.986654184215518
1,0.644883956627382,1,5.175,109,2,7,1,-1,-1,1,-1,-1,1,-1.03160305314026
0,0.680697489391605,-1,5.38,109,2,8,1,1,-1,-1,1,-1,-1,-0.318801271877704
1,0.760044316480162,-1,5.23,109,2,9,0,1,1,-1,-1,1,-1,-0.127653924071008
1,0.642404025472388,-1,6.334,109,2,10,0,-1,1,1,-1,-1,1,0.262292461588083
1,0.491983023975081,-1,5.132,109,2,11,0,-1,-1,1,-1,-1,-1,-0.332427833208819
1,0.639982815738222,1,5.269,109,2,12,1,-1,-1,-1,-1,-1,-1,-1.27591078833107
1,0.703776642846606,-1,5.547,109,2,13,0,1,-1,-1,1,-1,-1,-0.345782581363673
0,0.626572354544805,-1,5.055,109,2,14,1,-1,1,-1,-1,1,-1,-0.00973131200827898
1,0.984704092159518,-1,5.027,109,2,15,0,1,-1,1,-1,-1,1,-0.420678415148474
1,0.929009223215871,1,5.587,109,2,16,1,-1,1,-1,-1,-1,-1,1.17815851830676
1,0.63675032167157,-1,5.72,109,2,17,0,1,-1,1,1,-1,-1,0.972245978802463
1,0.620873564736939,1,6.032,109,2,18,1,-1,1,-1,-1,1,-1,-0.363691128813547
1,0.710414035867871,-1,6.07,109,2,19,0,1,-1,1,1,-1,1,-0.452992046173283
1,0.638925443116023,1,6.158,109,2,20,1,-1,1,-1,-1,1,-1,0.0234668913630654
1,0.651300271983018,-1,5.206,109,2,21,0,1,-1,1,1,-1,1,-0.351630624891837
1,0.566013603703141,1,5.173,109,2,22,1,-1,1,-1,-1,1,-1,-0.283787060951583
1,0.532173780165067,-1,5.734,109,2,23,0,1,-1,1,1,-1,1,-0.78016504700482
1,0.489655163091811,1,6.372,109,2,24,1,-1,1,-1,-1,1,-1,-0.998192399456024
1,0.487521846212076,-1,6.352,109,2,25,0,1,-1,1,1,-1,1,-1.29268446318093
1,0.55772121071459,1,5.091,109,2,26,1,-1,1,-1,-1,1,-1,-1.30812650226515
1,0.496962348725901,-1,5.404,109,2,27,0,1,-1,1,1,-1,1,-0.832362072049362
1,1.02053743682609,1,5.369,109,2,28,1,-1,1,-1,-1,1,-1,-1.24029655110356
0,1.22281694496996,1,5.95,109,2,29,0,1,-1,1,1,-1,1,1.30457063954282
1,0.976470322521891,1,5.491,109,2,30,1,-1,1,-1,1,1,-1,1.94409484323322
0,0.95019220861559,1,5.212,109,2,31,0,1,-1,1,1,1,1,1.14846190845972
1,0.710626767396207,-1,5.966,109,2,32,0,-1,1,-1,1,1,1,1.05198190733266
1,0.609080232231463,-1,5.776,109,2,33,0,-1,-1,1,-1,1,1,0.0245257723330955
1,0.681969838052282,-1,5.353,109,2,34,0,-1,-1,-1,-1,-1,1,-0.520815965696481
1,0.686710341220532,1,6.477,109,2,35,1,-1,-1,-1,-1,-1,-1,-0.121049449865352
1,0.800775155441443,1,5.174,109,2,36,1,1,-1,-1,1,-1,-1,-0.0965505812884628
0,0.748621695837755,1,5.199,109,2,37,0,1,1,-1,1,1,-1,0.44691772247181
1,1.0582110813275,-1,5.453,109,2,38,0,-1,1,1,1,1,1,0.208737122411087
1,0.603460975410599,1,5.514,109,2,39,1,-1,-1,1,-1,1,1,1.43277566990243
0,0.927230990317184,1,5.356,109,2,40,0,1,-1,-1,1,-1,1,-0.55359584210712
1,0.583304445541216,-1,5.695,109,2,41,0,-1,1,-1,1,1,-1,0.965469931566809
1,1.06414604644579,-1,5.443,109,2,42,0,-1,-1,1,-1,1,1,-0.673743269625135
0,0.914585761126546,1,6.092,109,2,43,0,-1,-1,-1,-1,-1,1,1.45255550500934
1,0.867902942119144,1,5.063,109,2,44,1,-1,-1,-1,1,-1,-1,0.916906547905807
1,0.675547395243484,-1,5.285,109,2,45,0,1,-1,-1,1,1,-1,0.731616779142997
1,0.620858542278256,1,5.37,109,2,46,1,-1,1,-1,-1,1,1,-0.154513612516944
1,0.519113508247756,-1,6.087,109,2,47,0,1,-1,1,1,-1,1,-0.453077618814295
1,0.789249501473932,-1,5.092,109,2,48,0,-1,1,-1,-1,1,-1,-1.08606934996717
1,0.546168673300599,-1,5.622,109,2,49,0,-1,-1,1,-1,-1,1,0.395644436343514
1,0.936358005831607,-1,5.718,109,2,50,0,-1,-1,-1,-1,-1,-1,-0.906388929629069
1,0.639671227712824,-1,6.465,109,2,51,0,-1,-1,-1,-1,-1,-1,1.00011201089306
1,0.661984276990552,-1,5.272,109,2,52,0,-1,-1,-1,-1,-1,-1,-0.347504886205245
1,0.633870397055034,1,5.26,109,2,53,1,-1,-1,-1,-1,-1,-1,-0.226242185073947
1,1.1980437048469,1,5.231,109,2,54,1,1,-1,-1,1,-1,-1,-0.379723130845006
1,0.658066780210902,-1,5.487,109,2,55,0,1,1,-1,1,1,-1,1.87170960476228
1,1.33915887964122,-1,6.029,109,2,56,0,-1,1,1,-1,1,1,-0.247233566591616
1,0.981089600591076,1,5.62,109,2,57,1,-1,-1,1,-1,-1,1,2.26552149010682
1,0.921617252583928,1,5.343,109,2,58,1,1,-1,-1,1,-1,-1,1.16515288226472
1,0.646443002660817,-1,5.039,109,2,59,0,1,1,-1,1,1,-1,0.943992911792537
1,0.766505319350472,1,6.245,109,2,60,1,-1,1,1,-1,1,1,-0.31026152968664
1,0.664684176632363,1,5.811,109,2,61,1,1,-1,1,1,-1,1,0.292229816458776
1,0.646968360128994,1,5.008,109,2,62,1,1,1,-1,1,1,-1,-0.211847318404199
1,0.496332766048909,-1,5.487,109,2,63,0,1,1,1,1,1,1,-0.307388500153065
1,0.552729709515006,-1,6.191,109,2,64,0,-1,1,1,-1,1,1,-1.24477983619692
1,0.651780396336108,-1,6.478,109,2,65,0,-1,-1,1,-1,-1,1,-0.864156906252692
1,0.716135934383601,1,5.85,109,2,66,1,-1,-1,-1,-1,-1,-1,-0.281180881712249
1,0.507669429098314,-1,6.205,109,2,67,0,1,-1,-1,1,-1,-1,0.051838066125297
1,0.620924850114534,-1,6.24,109,2,68,0,-1,1,-1,-1,1,-1,-1.16490851606933
1,0.585905642984471,-1,5.152,109,2,69,0,-1,-1,1,-1,-1,1,-0.452699924160295
1,1.05490918921714,1,5.719,109,2,70,1,-1,-1,-1,-1,-1,-1,-0.658006944889906
1,0.504722106099507,-1,5.539,109,2,71,0,1,-1,-1,1,-1,-1,1.42172316174654
1,0.818589189348131,1,6.455,109,2,72,1,-1,1,-1,-1,1,-1,-1.18550069403143
1,0.588575881164616,-1,6.206,109,2,73,0,1,-1,1,1,-1,1,0.524731598637728
1,1.13871427287086,-1,5.585,109,2,74,0,-1,1,-1,-1,1,-1,-0.641925451056978
1,0.822792951336851,1,5.039,109,2,75,1,-1,-1,1,-1,-1,1,1.69208259890913
1,0.615964469012397,-1,6.464,109,2,76,0,1,-1,-1,1,-1,-1,0.542847134824808
1,0.663139134429002,1,5.712,109,2,77,1,-1,1,-1,-1,1,-1,-0.481066594487568
1,0.59538641198742,-1,6.203,109,2,78,0,1,-1,1,1,-1,1,-0.220077740001408
1,0.740161416401861,1,6.12,109,2,79,1,-1,1,-1,-1,1,-1,-0.601237135597503
1,0.63912951304701,-1,6.014,109,2,80,0,1,-1,1,1,-1,1,0.168541405684603
1,0.661486776810307,1,5.391,109,2,81,1,-1,1,-1,-1,1,-1,-0.350501215693094
1,1.03351622382343,1,5.318,109,2,82,1,1,-1,1,1,-1,1,-0.228901076746995
1,0.704975755634223,1,5.133,109,2,83,1,1,1,-1,1,1,-1,1.3492647119218
1,0.622300100359098,1,5.438,109,2,84,1,1,1,1,1,1,1,-0.00371060769255118
1,0.618402690077346,1,5.999,109,2,85,1,1,1,1,1,1,1,-0.444875470574594
0,0.81036313786808,1,5.297,109,2,86,0,1,1,1,1,1,1,-0.467094834601107
1,1.027126656576,1,5.673,109,2,87,1,-1,1,1,1,1,1,0.489011835652056
1,0.935609221253799,1,5.234,109,2,88,1,1,-1,1,1,1,1,1.3273320203013
1,0.671786495021479,-1,5.669,109,2,89,0,1,1,-1,1,1,1,0.997282701111119
1,0.588230635301443,1,5.573,109,2,90,1,-1,1,1,-1,1,1,-0.174257812159812
1,0.734390055638869,-1,5.811,109,2,91,0,1,-1,1,1,-1,1,-0.644000580820252
1,0.630250992147921,-1,5.556,109,2,92,0,-1,1,-1,-1,1,-1,0.140856545703878
1,1.487546108885,1,5.367,109,2,93,1,-1,-1,1,-1,-1,1,-0.399975293465637
1,1.02407779681107,1,5.666,109,2,94,1,1,-1,-1,1,-1,-1,2.63717417459786
1,0.791939307360735,1,5.508,109,2,95,1,1,1,-1,1,1,-1,1.31681843975402
1,0.866337174324144,-1,6.033,109,2,96,0,1,1,1,1,1,1,0.40767703565766
1,0.893397064745841,-1,6.332,109,2,97,0,-1,1,1,-1,1,1,0.72523061504055
1,0.644796919601504,1,6.34,109,2,98,1,-1,-1,1,-1,-1,1,0.83400709785441
1,1.05473226948561,-1,5.776,109,2,99,0,1,-1,-1,1,-1,-1,-0.319278629224737
1,1.33449084641506,1,5.07,109,2,100,1,-1,1,-1,-1,1,-1,1.42112997771793
1,0.514108048329035,-1,5.025,109,3,2,0,-1,1,-1,-1,1,-1,-0.549819575367604
1,0.52951272237533,-1,5.891,109,3,3,0,-1,-1,1,-1,-1,1,-1.12033632399007
1,0.483355087903874,-1,5.746,109,3,4,0,-1,-1,-1,-1,-1,-1,-1.0159212568892
1,0.594855155899495,1,6.325,109,3,5,1,-1,-1,-1,-1,-1,-1,-1.33848348623609
1,0.668376911886298,1,5.461,109,3,6,1,1,-1,-1,1,-1,-1,-0.604394252500457
1,0.595420317618846,1,5.086,109,3,7,1,1,1,-1,1,1,-1,-0.192253410617222
0,0.58567983994908,-1,6.13,109,3,8,1,1,1,1,1,1,1,-0.601035738881497
1,1.13101077828833,-1,5.474,109,3,9,0,1,1,1,-1,1,1,-0.659370201548197
1,0.649359773065044,1,5.282,109,3,10,1,-1,1,1,-1,-1,1,1.66807559151566
1,0.690789953645435,1,6.37,109,3,11,1,1,-1,1,1,-1,-1,-0.294339959327643
1,0.774016307836973,1,5.907,109,3,12,1,1,1,-1,1,1,-1,-0.0756022080467439
1,0.584348340971701,1,6.174,109,3,13,1,1,1,1,1,1,1,0.326716748881135
1,0.936450072898879,-1,5.305,109,3,14,0,1,1,1,1,1,1,-0.667419657546812
1,1.01915088917394,-1,5.301,109,3,15,0,-1,1,1,-1,1,1,1.0004597334493
1,0.738588840216835,-1,5.253,109,3,16,0,-1,-1,1,-1,-1,1,1.29976232483781
1,0.652938460356381,-1,5.045,109,3,17,0,-1,-1,-1,-1,-1,-1,0.161019310003995
0,0.793858884871952,1,6.01,109,3,18,0,-1,-1,-1,-1,-1,-1,-0.274902646652508
1,0.682210156193833,1,5.834,109,3,19,1,-1,-1,-1,1,-1,-1,0.416239125392817
1,0.657439216807688,-1,6.175,109,3,20,0,1,-1,-1,1,1,-1,-0.119803396297187
0,0.751403060783559,-1,5.899,109,3,21,1,-1,1,-1,-1,1,1,-0.250607889483965
1,0.676091936633384,-1,5.025,109,3,22,0,1,-1,1,-1,-1,1,0.2218525325421
1,0.629898317762127,1,6.04,109,3,23,1,-1,1,-1,-1,-1,-1,-0.151663959867059
1,0.635474506868377,1,6.139,109,3,24,1,1,-1,1,1,-1,-1,-0.401954876632641
1,0.687081684657642,-1,6.423,109,3,25,0,1,1,-1,1,1,-1,-0.37078438660412
1,0.871497437414291,1,6.046,109,3,26,1,-1,1,1,-1,1,1,-0.0946386309817191
1,0.679680936051227,1,5.025,109,3,27,1,1,-1,1,1,-1,1,0.746233865250991
1,0.646635452530973,1,6.444,109,3,28,1,1,1,-1,1,1,-1,-0.132939500353446
1,0.649731030199291,-1,5.295,109,3,29,0,1,1,1,1,1,1,-0.309208805555825
1,0.94548579577804,-1,5.638,109,3,30,0,-1,1,1,-1,1,1,-0.292318536621455
1,0.702851374622696,1,6.364,109,3,31,1,-1,-1,1,-1,-1,1,1.03442095073746
1,1.29858550973859,1,5.577,109,3,32,1,1,-1,-1,1,-1,-1,-0.0143840679767608
1,0.730388957575087,-1,5.81,109,3,33,0,1,1,-1,1,1,-1,2.1567125811376
1,0.698171897535758,-1,5.5,109,3,34,0,-1,1,1,-1,1,1,0.121535528150213
1,0.773950454720762,-1,5.161,109,3,35,0,-1,-1,1,-1,-1,1,-0.0380092639055204
1,0.644474346686366,1,6.08,109,3,36,1,-1,-1,-1,-1,-1,-1,0.326415838945442
1,0.946941929114473,1,6.11,109,3,37,1,1,-1,-1,1,-1,-1,-0.321048352784202
1,0.64905719249964,1,5.795,109,3,38,1,1,1,-1,1,1,-1,1.03986351739154
1,0.746630550960617,1,5.668,109,3,39,1,1,1,1,1,1,1,-0.295988306489172
1,0.555738452837431,1,6.276,109,3,40,1,1,1,1,1,1,1,0.199317999112612
0,0.734087369811277,-1,5.894,109,3,41,1,1,1,1,1,1,1,-0.844957632086365
1,0.965522307471474,1,5.63,109,3,42,1,1,1,1,-1,1,1,0.139398582220919
1,0.677364435996424,1,5.5,109,3,43,1,1,1,1,1,-1,1,1.10858566513089
1,0.606629353518656,1,6.182,109,3,44,1,1,1,1,1,1,-1,-0.14501375126331
1,0.86160825395109,-1,5.743,109,3,45,0,1,1,1,1,1,1,-0.535075797243868
1,0.664775743864993,1,6.147,109,3,46,1,-1,1,1,-1,1,1,0.705872864398865
1,0.779438783662044,-1,5.477,109,3,47,0,1,-1,1,1,-1,1,-0.211360141525327
1,0.663096863701867,1,5.006,109,3,48,1,-1,1,-1,-1,1,-1,0.351406829820317
1,0.849650693032345,1,5.964,109,3,49,1,1,-1,1,1,-1,1,-0.220303185067453
1,0.694736307379571,1,5.809,109,3,50,1,1,1,-1,1,1,-1,0.656446830015707
1,0.632258370001182,-1,5.216,109,3,51,0,1,1,1,1,1,1,-0.0554554926322611
1,0.756791461972171,-1,5.112,109,3,52,0,-1,1,1,-1,1,1,-0.388728810877269
1,0.660019835110688,1,5.458,109,3,53,1,-1,-1,1,-1,-1,1,0.247123754374582
1,0.732302542971411,1,6.361,109,3,54,1,1,-1,-1,1,-1,-1,-0.236752809699119
1,0.598891509373061,1,5.485,109,3,55,1,1,1,-1,1,1,-1,0.130789265870934
1,1.03980925067572,-1,5.955,109,3,56,0,1,1,1,1,1,1,-0.580477593949294
1,0.586608514491672,1,5.297,109,3,57,1,-1,1,1,-1,1,1,1.37073388231732
1,0.592074260383924,1,6.149,109,3,58,1,1,-1,1,1,-1,1,-0.653766809508116
1,0.693771430393099,1,6.199,109,3,59,1,1,1,-1,1,1,-1,-0.620966537799399
1,0.878058248065827,1,5.194,109,3,60,1,1,1,1,1,1,1,-0.0603707418394359
1,0.795501550823246,-1,6.164,109,3,61,0,1,1,1,1,1,1,0.772758755642872
1,0.67875437427665,-1,5.486,109,3,62,0,-1,1,1,-1,1,1,0.423549654999137
1,1.1392392282487,1,5.074,109,3,63,1,-1,-1,1,-1,-1,1,-0.13776405592335
1,0.731499127171446,-1,5.574,109,3,64,0,1,-1,-1,1,-1,-1,1.69371264306937
1,0.599531764421044,-1,5.427,109,3,65,0,-1,1,-1,-1,1,-1,0.126907047130303
1,0.646159967244785,-1,5.596,109,3,66,0,-1,-1,1,-1,-1,1,-0.576698700503897
1,0.878712397761774,1,6.338,109,3,67,1,-1,-1,-1,-1,-1,-1,-0.31181033727419
1,0.973252384750595,-1,5.557,109,3,68,0,1,-1,-1,1,-1,-1,0.775392562511729
1,0.532885519872252,1,5.625,109,3,69,1,-1,1,-1,-1,1,-1,1.13678771155243
1,0.749321029611565,1,5.926,109,3,70,1,1,-1,1,1,-1,1,-0.993465576901347
1,0.833123255813916,1,5.15,109,3,71,1,1,1,-1,1,1,-1,0.212039381575879
1,1.02357648822181,-1,5.805,109,3,72,0,1,1,1,1,1,1,0.586973913820502
0,0.770107149021896,-1,6.037,109,3,73,1,-1,1,1,-1,1,1,1.31508674896056
1,1.05674486927182,1,5.378,109,3,74,1,1,-1,1,-1,-1,1,0.308809698719031
1,0.695166860956306,-1,5.145,109,3,75,0,1,1,-1,1,-1,-1,1.4278720436967
1,0.643730091990619,-1,5.932,109,3,76,0,-1,1,1,-1,1,-1,-0.0532643810299846
1,0.710038929134498,-1,5.207,109,3,77,0,-1,-1,1,-1,-1,1,-0.325134920207753
1,0.765767981903082,-1,6.246,109,3,78,0,-1,-1,-1,-1,-1,-1,0.0215990076270421
1,0.838970326771232,1,6.291,109,3,80,1,1,-1,-1,-1,-1,-1,NaN
1,0.785822072755764,-1,5.358,109,3,81,0,1,1,-1,1,-1,-1,0.61170831397376
1,0.598025766748833,1,5.9,109,3,82,1,-1,1,1,-1,1,-1,0.380252592407552
0,0.942904308896686,1,5.203,109,3,83,0,1,-1,1,1,-1,1,-0.585593782818873
1,0.752995114448822,-1,5.935,109,3,84,0,-1,1,-1,1,1,-1,1.02475153339977
1,0.589839827788637,-1,6.435,109,3,85,0,-1,-1,1,-1,1,1,0.229337964986576
1,0.876253169642041,-1,6.086,109,3,86,0,-1,-1,-1,-1,-1,1,-0.634338763380982
1,0.606221848500354,1,5.591,109,3,87,1,-1,-1,-1,-1,-1,-1,0.765480767116859
1,0.733104379834003,-1,5.381,109,3,88,0,1,-1,-1,1,-1,-1,-0.537452349033523
1,0.591784356427524,-1,5.561,109,3,89,0,-1,1,-1,-1,1,-1,0.134659610614258
1,0.62929706964951,-1,6.296,109,3,90,0,-1,-1,1,-1,-1,1,-0.62269865047397
1,0.965059340900552,-1,6.1,109,3,91,0,-1,-1,-1,-1,-1,-1,-0.405332276353083
1,0.709264603369775,-1,5.178,109,3,92,0,-1,-1,-1,-1,-1,-1,1.10688944076966
1,0.644204205268579,-1,5.968,109,3,93,0,-1,-1,-1,-1,-1,-1,0.0177400474427429
1,0.757701910742981,1,6.327,109,3,94,1,-1,-1,-1,-1,-1,-1,-0.322531104410117
1,0.816980575805246,-1,6.172,109,3,95,0,1,-1,-1,1,-1,-1,0.251375918480619
1,0.620555201992829,1,5.034,109,3,96,1,-1,1,-1,-1,1,-1,0.517774877174334
1,0.604067689651856,1,5.425,109,3,97,1,1,-1,1,1,-1,1,-0.454805983477632
1,0.53107131336219,1,5.813,109,3,98,1,1,1,-1,1,1,-1,-0.55004191427338
1,0.594800088591001,-1,6.309,109,3,99,0,1,1,1,1,1,1,-1.00552662257056
1,0.751263043065592,1,5.342,109,3,100,1,-1,1,1,-1,1,1,-0.604721664472102
1,0.753417228394028,-1,5.592,109,4,2,0,-1,1,-1,-1,1,-1,2.17893384010804
1,0.581555697903241,-1,6.292,109,4,3,0,-1,-1,1,-1,-1,1,0.231319983350791
0,0.600965875345537,1,5.832,109,4,4,0,-1,-1,-1,-1,-1,-1,-0.684362071296399
1,0.943866077044731,-1,6.117,109,4,5,0,-1,-1,-1,1,-1,-1,-0.568248958121477
1,0.876354665219878,-1,5.359,109,4,6,0,-1,-1,-1,-1,1,-1,1.02835709736474
1,0.647282944864855,-1,5.801,109,4,7,0,-1,-1,-1,-1,-1,1,0.765890389990768
1,0.874548037933891,1,5.168,109,4,8,1,-1,-1,-1,-1,-1,-1,-0.305669242875774
1,0.704236752947509,-1,5.49,109,4,9,0,1,-1,-1,1,-1,-1,0.75859197532956
1,0.984720486626429,1,5.738,109,4,10,1,-1,1,-1,-1,1,-1,-0.00741990287796887
1,0.669789079509428,-1,5.68,109,4,11,0,1,-1,1,1,-1,1,1.17821739992999
1,1.14606310844647,1,5.322,109,4,12,1,-1,1,-1,-1,1,-1,-0.184788953091419
1,0.91846223169523,-1,5.404,109,4,13,0,1,-1,1,1,-1,1,1.71483346664216
1,0.803005373943051,-1,6.477,109,4,14,0,-1,1,-1,-1,1,-1,0.931864947504954
1,0.75060796823891,-1,5.024,109,4,15,0,-1,-1,1,-1,-1,1,0.456753859850741
1,0.731282576119156,1,5.264,109,4,16,1,-1,-1,-1,-1,-1,-1,0.218108268835329
1,0.691899002622449,1,5.529,109,4,17,1,1,-1,-1,1,-1,-1,0.125859912288554
1,0.59436076815382,-1,5.212,109,4,18,0,1,1,-1,1,1,-1,-0.0699287460154231
1,0.643672633719689,-1,5.149,109,4,19,0,-1,1,1,-1,1,1,-0.607334804303275
1,0.639748189289094,-1,5.784,109,4,20,0,-1,-1,1,-1,-1,1,-0.325450609576675
0,0.556873483011259,1,5.479,109,4,21,0,-1,-1,-1,-1,-1,-1,-0.347079402585564
1,0.610889291668173,-1,5.691,109,4,22,0,-1,-1,-1,1,-1,-1,-0.837741812417165
1,0.566231128596883,1,5.608,109,4,23,1,-1,-1,-1,-1,1,-1,-0.510327160956506
1,0.682651818882732,1,5.712,109,4,24,1,1,-1,-1,1,-1,1,-0.778806137645374
1,0.946775824936594,1,5.525,109,4,25,1,1,1,-1,1,1,-1,-0.117514512098863
1,0.665270721996421,-1,5.618,109,4,26,0,1,1,1,1,1,1,1.03924309546995
1,0.622493915044288,1,5.145,109,4,27,1,-1,1,1,-1,1,1,-0.208727807202735
1,0.610247137971783,-1,5.399,109,4,28,0,1,-1,1,1,-1,1,-0.443774156929521
1,0.724410850207278,1,6.445,109,4,29,1,-1,1,-1,-1,1,-1,-0.514046764625488
1,0.648625676523807,-1,5.61,109,4,30,0,1,-1,1,1,-1,1,0.0924695630064107
0,0.814564117919872,-1,5.207,109,4,31,1,-1,1,-1,-1,1,-1,-0.298340375996874
1,0.682104626972432,-1,5.901,109,4,32,0,1,-1,1,-1,-1,1,0.507298710457796
1,0.674084544069956,1,5.886,109,4,33,1,-1,1,-1,-1,-1,-1,-0.120350513005614
1,0.806205694961136,1,5.397,109,4,34,1,1,-1,1,1,-1,-1,-0.162180282961283
1,0.592516291491847,1,5.33,109,4,35,1,1,1,-1,1,1,-1,0.470820906681584
1,0.642795515557737,1,5.625,109,4,36,1,1,1,1,1,1,1,-0.618327130473765
1,0.883175661813766,1,5.69,109,4,37,1,1,1,1,1,1,1,-0.330273206457492
1,0.650873003772176,1,6.357,109,4,38,1,1,1,1,1,1,1,0.793310871680438
1,0.786922399985087,-1,5.704,109,4,39,0,1,1,1,1,1,1,-0.286107946090536
1,0.636851027780722,1,6.404,109,4,40,1,-1,1,1,-1,1,1,0.385201229337793
1,0.68974914449791,-1,6.001,109,4,41,0,1,-1,1,1,-1,1,-0.363131829694166
1,0.624294140280654,-1,5.229,109,4,42,0,-1,1,-1,-1,1,-1,-0.0809348730244552
1,0.643278824264598,-1,5.754,109,4,43,0,-1,-1,1,-1,-1,1,-0.433561086129603
0,0.620335643441649,1,5.415,109,4,44,0,-1,-1,-1,-1,-1,-1,-0.327615050888317
1,0.692300387051546,-1,6.418,109,4,45,0,-1,-1,-1,1,-1,-1,-0.45605750582367
1,0.641589545671195,-1,6.455,109,4,46,0,-1,-1,-1,-1,1,-1,-0.0678776607828052
1,0.705744750279337,-1,5.094,109,4,47,0,-1,-1,-1,-1,-1,1,-0.336914660528495
1,0.744856577269275,1,6.158,109,4,48,1,-1,-1,-1,-1,-1,-1,0.000145100938105418
0,0.718246134710171,1,6.396,109,4,49,0,1,-1,-1,1,-1,-1,0.190905022181391
1,0.580642312897908,1,5.454,109,4,50,1,-1,1,-1,1,1,-1,0.0622439980351798
1,0.736261096037197,1,5.758,109,4,51,1,1,-1,1,1,1,1,-0.689921058412471
0,0.750154121908054,-1,6.383,109,4,52,1,1,1,-1,1,1,1,0.149855572804649
1,0.593639821903707,-1,6.479,109,4,53,0,1,1,1,-1,1,1,0.215969229261656
1,0.58130773711855,1,6.009,109,4,54,1,-1,1,1,-1,-1,1,-0.611627282643227
1,0.917460347432097,1,6.154,109,4,55,1,1,-1,1,1,-1,-1,-0.685870330978684
1,0.772451660335719,-1,6.353,109,4,56,0,1,1,-1,1,1,-1,0.928004967426269
1,1.15896821204205,1,6.04,109,4,57,1,-1,1,1,-1,1,1,0.319560300249634
1,1.22108431719971,-1,6.332,109,4,58,0,1,-1,1,1,-1,1,1.75443491138296
1,0.945768523252809,1,5.348,109,4,59,1,-1,1,-1,-1,1,-1,1.93908015986866
1,0.792101362528228,-1,5.312,109,4,60,0,1,-1,1,1,-1,1,1.03547835221465
1,0.961942895110042,-1,5.494,109,4,61,0,-1,1,-1,-1,1,-1,0.408400668694365
1,0.66281659878041,-1,5.577,109,4,62,0,-1,-1,1,-1,-1,1,1.09545013773003
1,0.730387871279163,-1,5.181,109,4,63,0,-1,-1,-1,-1,-1,-1,-0.22179830282069
1,0.908910561225639,1,6.023,109,4,64,1,-1,-1,-1,-1,-1,-1,0.12153026814582
1,0.585567739341059,1,5.852,109,4,65,1,1,-1,-1,1,-1,-1,0.894892520532831
1,0.639428003412831,-1,5.645,109,4,66,0,1,1,-1,1,1,-1,-0.660047189736346
1,0.963537087368422,1,6.387,109,4,67,1,-1,1,1,-1,1,1,-0.348849893245679
1,0.790374332629654,1,5.688,109,4,68,1,1,-1,1,1,-1,1,1.10130644176207
1,0.652855009773702,-1,6.162,109,4,69,0,1,1,-1,1,1,-1,0.400681246250785
1,0.848145838209348,1,5.812,109,4,70,1,-1,1,1,-1,1,1,-0.275354686489506
1,0.679400024190727,1,6.103,109,4,71,1,1,-1,1,1,-1,1,0.650177358920557
1,0.656281483612474,-1,5.977,109,4,72,0,1,1,-1,1,1,-1,-0.134401497692242
1,0.748511835489808,-1,5.098,109,4,73,0,-1,1,1,-1,1,1,-0.256841323738163
1,0.740923249602929,1,5.427,109,4,74,1,-1,-1,1,-1,-1,1,0.208218080697815
1,0.662926146935206,-1,5.798,109,4,75,0,1,-1,-1,1,-1,-1,0.172179733916119
1,0.659962068570167,1,5.733,109,4,76,1,-1,1,-1,-1,1,-1,-0.221213825536975
1,0.708236703911098,1,5.067,109,4,77,1,1,-1,1,1,-1,1,-0.237062359273187
1,0.788676535295963,1,5.854,109,4,78,1,1,1,-1,1,1,-1,0.0126108540573715
1,0.754560164365103,1,5.429,109,4,79,1,1,1,1,1,1,1,0.393076027294704
1,0.761283492753137,1,6.115,109,4,80,1,1,1,1,1,1,1,0.236681022538862
1,1.14603872906991,-1,5.948,109,4,81,0,1,1,1,1,1,1,0.268053917054816
1,0.878067597466725,1,6.12,109,4,82,1,-1,1,1,-1,1,1,1.71475823327248
1,0.990486697048254,-1,6.018,109,4,83,0,1,-1,1,1,-1,1,0.772796413012053
1,1.02554801668521,1,6.003,109,4,84,1,-1,1,-1,-1,1,-1,1.19886648874126
1,0.639014938771652,-1,5.393,109,4,85,0,1,-1,1,1,-1,1,1.32189219612603
1,0.680118320246038,1,5.677,109,4,86,1,-1,1,-1,-1,1,-1,-0.351135273726419
1,0.630393258297772,1,5.676,109,4,87,1,1,-1,1,1,-1,1,-0.130664349858874
1,0.531022821362058,1,5.538,109,4,88,1,1,1,-1,1,1,-1,-0.399177058291647
1,0.652281058639346,-1,6.08,109,4,89,0,1,1,1,1,1,1,-1.00584956783131
1,0.612219519976861,-1,5.84,109,4,90,0,-1,1,1,-1,1,1,-0.278465263678376
1,0.684913224824413,-1,6.42,109,4,91,0,-1,-1,1,-1,-1,1,-0.502634384894116
1,0.690468068531118,-1,6.284,109,4,92,0,-1,-1,-1,-1,-1,-1,-0.105818097299327
1,0.692624678164066,1,5.301,109,4,93,1,-1,-1,-1,-1,-1,-1,-0.0772505522900332
1,0.75543244045366,-1,5.012,109,4,94,0,1,-1,-1,1,-1,-1,-0.0662213927976567
1,0.592640324679451,1,6.328,109,4,95,1,-1,1,-1,-1,1,-1,0.240767047577145
1,1.20077382593263,1,5.037,109,4,96,1,1,-1,1,1,-1,1,-0.617586870973924
1,0.768471791292541,-1,5.61,109,4,97,0,1,1,-1,1,1,-1,1.87975980551602
0,0.730870319252062,-1,5.965,109,4,98,1,-1,1,1,-1,1,1,0.301291479653607
1,0.76065649685188,1,6.086,109,4,99,1,1,-1,1,-1,-1,1,0.123865582622013
1,0.589471702374794,1,6.265,109,4,100,1,1,1,-1,1,-1,-1,0.265139920553022
1,0.650540648966853,1,6.174,109,5,2,1,-1,1,1,-1,1,1,2.52380493847853
1,0.635329808565075,-1,5.319,109,5,3,0,1,-1,1,1,-1,1,-0.287914323284325
1,0.570137900047484,-1,5.18,109,5,4,0,-1,1,-1,-1,1,-1,-0.371589777262159
0,0.675644654169446,-1,5.235,109,5,5,1,-1,-1,1,-1,-1,1,-0.754488456710514
1,0.55377669122754,-1,5.441,109,5,6,0,1,-1,-1,-1,-1,-1,-0.154004476035288
1,0.832920445436685,-1,6.381,109,5,7,0,-1,1,-1,-1,-1,-1,-0.857464117410014
0,1.0808412455608,-1,5.138,109,5,8,1,-1,-1,1,-1,-1,-1,0.586112869286507
1,0.617295358970296,-1,5.185,109,5,9,0,1,-1,-1,-1,-1,-1,1.50761059512031
1,0.787766033567095,1,5.023,109,5,10,1,-1,1,-1,-1,-1,-1,-0.473433343197278
0,1.08362814463544,-1,5.932,109,5,11,1,1,-1,1,1,-1,-1,0.388990722181876
1,0.643112723682862,-1,5.695,109,5,12,0,1,1,-1,-1,1,-1,1.5167179416399
1,0.696048723773856,-1,6.131,109,5,13,0,-1,1,1,-1,-1,1,-0.328528364238916
0,0.577935450895893,1,5.382,109,5,14,0,-1,-1,1,-1,-1,-1,-0.0487807642709019
1,1.0926716229369,-1,5.538,109,5,15,0,-1,-1,-1,1,-1,-1,-0.706446898464384
1,0.886545820229003,1,5.483,109,5,16,1,-1,-1,-1,-1,1,-1,1.54611075203427
1,1.32630884368155,-1,5.606,109,5,17,0,1,-1,-1,1,-1,1,0.806780876339978
1,0.68463021196294,1,5.923,109,5,18,1,-1,1,-1,-1,1,-1,2.23142135436503
1,0.769323744532812,-1,5.384,109,5,19,0,1,-1,1,1,-1,1,-0.107279776932944
0,0.722533990297961,-1,6.349,109,5,20,1,-1,1,-1,-1,1,-1,0.30521015275464
1,0.711332898117689,1,5.759,109,5,21,1,1,-1,1,-1,-1,1,0.0832946500267353
1,0.682169378100298,-1,5.052,109,5,22,0,1,1,-1,1,-1,-1,0.0280382995081289
1,1.20520572176792,-1,5.571,109,5,23,0,-1,1,1,-1,1,-1,-0.120014800467181
1,1.07102799360655,1,6.333,109,5,24,1,-1,-1,1,-1,-1,1,1.89278907097564
1,0.62691387862651,1,5.77,109,5,25,1,1,-1,-1,1,-1,-1,1.47535374837348
0,0.972379138744145,1,6.261,109,5,26,0,1,1,-1,1,1,-1,-0.418751229279159
0,0.665365608594584,-1,5.228,109,5,27,1,-1,1,1,1,1,1,1.13361304679137
1,0.761517250297402,-1,6.111,109,5,28,0,1,-1,1,-1,1,1,-0.208223416202699
1,0.8657046933331,-1,6.181,109,5,29,0,-1,1,-1,-1,-1,1,0.269139703429917
1,0.561228356793436,1,5.966,109,5,30,1,-1,-1,1,-1,-1,-1,0.722647695135212
1,0.625872877913935,1,5.979,109,5,31,1,1,-1,-1,1,-1,-1,-0.810192026114195
1,0.679736886650062,-1,6.379,109,5,32,0,1,1,-1,1,1,-1,-0.424628772090645
1,0.497226749088441,1,6.438,109,5,33,1,-1,1,1,-1,1,1,-0.132648379304068
1,0.906732429013573,-1,6.019,109,5,34,0,1,-1,1,1,-1,1,-1.23841543808823
1,0.689939158293782,-1,5.733,109,5,35,0,-1,1,-1,-1,1,-1,0.886407052201105
1,0.507006624997302,1,6.227,109,5,36,1,-1,-1,1,-1,-1,1,-0.0799607226933678
1,0.565613106486126,1,5.076,109,5,37,1,1,-1,-1,1,-1,-1,-1.16952891702993
1,0.746173283272583,1,6.226,109,5,38,1,1,1,-1,1,1,-1,-0.782668377322801
1,0.700474671953998,-1,5.826,109,5,39,0,1,1,1,1,1,1,0.197151344859444
1,0.548320061652703,1,5.777,109,5,40,1,-1,1,1,-1,1,1,-0.026363562992322
1,0.86500850239463,-1,5.174,109,5,41,0,1,-1,1,1,-1,1,-0.892485245121488
0,0.999598847996822,-1,5.338,109,5,42,1,-1,1,-1,-1,1,-1,0.719802414468598
1,0.802120894926702,1,6.408,109,5,43,1,1,-1,1,-1,-1,1,1.23125373499867
1,0.602023898502011,-1,5.075,109,5,44,0,1,1,-1,1,-1,-1,0.452856233490371
1,0.546436261938652,-1,6.312,109,5,45,0,-1,1,1,-1,1,-1,-0.562028030083786
1,0.59773620832857,1,5.984,109,5,46,1,-1,-1,1,-1,-1,1,-0.904656616694622
1,0.591115563807762,-1,5.195,109,5,47,0,1,-1,-1,1,-1,-1,-0.587306609014608
1,0.526695951319198,1,6.276,109,5,48,1,-1,1,-1,-1,1,-1,-0.626697778833574
1,0.750770038772316,-1,5.259,109,5,49,0,1,-1,1,1,-1,1,-1.03478486118427
1,0.797471150564888,1,6.392,109,5,50,1,-1,1,-1,-1,1,-1,0.218871815952021
1,0.751926433629706,1,5.102,109,5,51,1,1,-1,1,1,-1,1,0.432295296979085
1,0.703486381587936,-1,5.952,109,5,52,0,1,1,-1,1,1,-1,0.224315047369614
1,0.556180540499554,1,5.309,109,5,53,1,-1,1,1,-1,1,1,-0.0111902459618086
1,0.680495904243799,1,5.622,109,5,54,1,1,-1,1,1,-1,1,-0.842145361549142
0,0.919650709050984,1,5.359,109,5,55,0,1,1,-1,1,1,-1,-0.128701439745165
1,0.965126325098026,-1,5.603,109,5,56,0,-1,1,1,1,1,1,0.936438362459592
1,0.670917869121695,-1,5.256,109,5,57,0,-1,-1,1,-1,1,1,1.10713490889209
1,0.884086742486033,-1,5.907,109,5,58,0,-1,-1,-1,-1,-1,1,-0.178833688324676
1,0.634637670234952,1,6.311,109,5,59,1,-1,-1,-1,-1,-1,-1,0.796957383802101
0,0.7994718556929,1,6.206,109,5,60,0,1,-1,-1,1,-1,-1,-0.375444757643932
1,0.854288591443037,-1,5.357,109,5,61,0,-1,1,-1,1,1,-1,0.441156970052064
1,0.599059824060532,-1,5.358,109,5,62,0,-1,-1,1,-1,1,1,0.67569945788323
1,0.598037172689146,-1,5.491,109,5,63,0,-1,-1,-1,-1,-1,1,-0.579483780955402
1,0.63235666651417,-1,6.019,109,5,64,0,-1,-1,-1,-1,-1,-1,-0.58552633018866
1,0.823797019960693,1,5.27,109,5,65,1,-1,-1,-1,-1,-1,-1,-0.388179014847408
1,0.568948667547374,1,5.083,109,5,66,1,1,-1,-1,1,-1,-1,0.547160336964844
1,0.48822265758281,1,5.621,109,5,67,1,1,1,-1,1,1,-1,-0.761873142558894
1,0.569298210210036,1,5.112,109,5,68,1,1,1,1,1,1,1,-1.3030462306905
1,0.475972767748317,1,5.423,109,5,69,1,1,1,1,1,1,1,-0.759701013807014
1,0.432706178449735,1,5.977,109,5,70,1,1,1,1,1,1,1,-1.39291572809082
1,0.430741529640727,1,6.044,109,5,71,1,1,1,1,1,1,1,-1.72996434799311
1,0.798783251171699,-1,6.32,109,5,72,0,1,1,1,1,1,1,-1.74605862477552
1,0.63989549300095,-1,5.56,109,5,73,0,-1,1,1,-1,1,1,0.438109456650888
1,0.630276687305013,-1,5.207,109,5,74,0,-1,-1,1,-1,-1,1,-0.346265173777844
1,0.698965527850305,-1,5.962,109,5,75,0,-1,-1,-1,-1,-1,-1,-0.399831108254162
1,0.746879421187259,-1,5.804,109,5,76,0,-1,-1,-1,-1,-1,-1,-0.0339913465744192
1,0.653951551475984,1,5.813,109,5,77,1,-1,-1,-1,-1,-1,-1,0.2004966539657
1,0.628259223216446,1,5.493,109,5,78,1,1,-1,-1,1,-1,-1,-0.269419480769607
1,0.797673961269538,1,5.17,109,5,79,1,1,1,-1,1,1,-1,-0.411169785700681
1,0.85297517505569,-1,5.261,109,5,80,0,1,1,1,1,1,1,0.433194613366219
1,0.929270522257866,1,5.958,109,5,81,1,-1,1,1,-1,1,1,0.670257894137519
1,0.784410596857924,1,5.615,109,5,82,1,1,-1,1,1,-1,1,0.973240579032173
1,0.926615347725601,1,6.288,109,5,83,1,1,1,-1,1,1,-1,0.373894433134863
1,0.655192088643162,-1,6.345,109,5,84,0,1,1,1,1,1,1,0.963120965362656
1,0.798939438120215,-1,6.332,109,5,85,0,-1,1,1,-1,1,1,-0.262716863234268
1,0.929043816973717,1,5.185,109,5,86,1,-1,-1,1,-1,-1,1,0.438800913633847
1,0.737592895437047,1,6.172,109,5,87,1,1,-1,-1,1,-1,-1,0.972377671429754
1,0.854827365954407,1,6.012,109,5,88,1,1,1,-1,1,1,-1,0.156247124402894
1,0.713637086058952,-1,6.412,109,5,89,0,1,1,1,1,1,1,0.677929213954902
1,0.681822670005204,1,5.987,109,5,90,1,-1,1,1,-1,1,1,0.0394758859601677
0,0.805437625122067,1,6.42,109,5,91,0,1,-1,1,1,-1,1,-0.121812735442821
0,1.47675333734333,1,5.206,109,5,92,0,-1,1,-1,1,1,-1,0.467449946365416
1,0.666405018928344,-1,6.412,109,5,93,0,-1,-1,1,1,1,1,2.61142076954988
1,0.832339020340441,1,6.397,109,5,94,1,-1,-1,-1,-1,1,1,-0.202702902218256
1,1.14845039358988,1,5.459,109,5,95,1,1,-1,-1,1,-1,1,0.583643228959051
1,1.30013090205284,1,5.149,109,5,96,1,1,1,-1,1,1,-1,1.72219275232955
1,1.07474758223179,1,6.107,109,5,97,1,1,1,1,1,1,1,2.16091889560937
1,1.03710161783783,-1,5.044,109,5,98,0,1,1,1,1,1,1,1.48761494554732
1,0.778058995691026,-1,5.727,109,5,99,0,-1,1,1,-1,1,1,1.36151254332531
1,0.981948016031311,1,5.19,109,5,100,1,-1,-1,1,-1,-1,1,0.345140592193266
1,0.564321336898502,-1,6.291,110,1,2,0,1,1,-1,1,1,-1,0.804836107046673
1,0.986816386293867,1,5.123,110,1,3,1,-1,1,1,-1,1,1,-0.790754751357297
1,0.548607706389703,1,6.474,110,1,4,1,1,-1,1,1,-1,1,1.18573687591339
1,0.636509966263475,1,6.419,110,1,5,1,1,1,-1,1,1,-1,-0.890630431657356
1,0.490864238220183,1,5.733,110,1,6,1,1,1,1,1,1,1,-0.36502636636511
1,0.540704130407448,-1,5.743,110,1,7,0,1,1,1,1,1,1,-1.28396240168538
1,0.999471442814865,-1,6.224,110,1,8,0,-1,1,1,-1,1,1,-0.9419521110368
0,0.668856641996626,-1,5.844,110,1,9,1,-1,-1,1,-1,-1,1,1.23080293816576
1,0.764563223189271,1,5.457,110,1,10,1,1,-1,-1,-1,-1,-1,-0.189715878432757
1,0.549245897705987,1,6.342,110,1,11,1,1,1,-1,1,-1,-1,0.283257632749686
1,0.668100887539367,-1,5.45,110,1,12,0,1,1,1,1,1,-1,-0.886518666181619
0,0.840677266575312,-1,5.379,110,1,13,1,-1,1,1,-1,1,1,-0.193714266845109
1,0.510059612555779,1,5.279,110,1,14,1,1,-1,1,-1,-1,1,0.618896544748162
1,0.526463456270449,1,6.341,110,1,15,1,1,1,-1,1,-1,-1,-1.14829652475665
1,0.752767897888589,-1,5.946,110,1,16,0,1,1,1,1,1,-1,-1.03634635918379
0,0.445058673039057,-1,5.39,110,1,17,1,-1,1,1,-1,1,1,0.22827061908345
0,0.934115445142652,-1,6.463,110,1,18,1,1,-1,1,-1,-1,1,-1.63041762089327
1,0.647496879392747,1,5.379,110,1,19,1,1,1,-1,-1,-1,-1,0.991631643005564
1,0.794558429170138,-1,5.181,110,1,20,0,1,1,1,1,-1,-1,-0.304500532790667
1,0.691373791933529,-1,5.16,110,1,21,0,-1,1,1,-1,1,-1,0.419354228779966
1,0.494899715268275,-1,5.154,110,1,22,0,-1,-1,1,-1,-1,1,-0.0726143846110902
1,0.467447962746064,-1,5.716,110,1,23,0,-1,-1,-1,-1,-1,-1,-1.25500589265021
1,0.741940009872451,1,5.491,110,1,24,1,-1,-1,-1,-1,-1,-1,-1.45683218420061
0,0.649023091055369,-1,5.088,110,1,25,1,1,-1,-1,1,-1,-1,0.177029707340506
0,0.868037711750731,-1,6.152,110,1,26,1,1,1,-1,-1,1,-1,-0.296174126742346
0,0.958457199691111,1,6.257,110,1,27,0,1,1,1,-1,-1,1,0.732165913980068
1,0.753076286850046,-1,5.694,110,1,28,0,-1,1,1,1,-1,-1,1.08261146814594
1,1.03165987146213,1,5.725,110,1,29,1,-1,-1,1,-1,1,-1,0.229719192871948
1,0.532213261109973,-1,6.445,110,1,30,0,1,-1,-1,1,-1,1,1.34290664242684
1,0.598542116756562,1,5.218,110,1,31,1,-1,1,-1,-1,1,-1,-0.997930032106454
1,0.754799606409961,1,6.442,110,1,32,1,1,-1,1,1,-1,1,-0.582541472386892
1,0.601510751482692,-1,5.056,110,1,33,0,1,1,-1,1,1,-1,0.237803117143278
1,0.515310935528305,1,5.409,110,1,34,1,-1,1,1,-1,1,1,-0.565043847652319
1,0.513519680158879,1,5.045,110,1,35,1,1,-1,1,1,-1,1,-1.11207109755318
1,0.492782361017362,1,5.503,110,1,36,1,1,1,-1,1,1,-1,-1.12438613942523
1,0.53669310367377,1,6.127,110,1,37,1,1,1,1,1,1,1,-1.27016937136665
1,0.464817397074512,1,5.63,110,1,38,1,1,1,1,1,1,1,-0.968285304808464
1,0.426468523579388,-1,5.762,110,1,39,0,1,1,1,1,1,1,-1.47679089942815
1,0.662514491896218,1,5.092,110,1,40,1,-1,1,1,-1,1,1,-1.78131776178492
1,0.49595985511678,1,5.429,110,1,41,1,1,-1,1,1,-1,1,-0.223410648177699
1,0.493605284045316,-1,6.454,110,1,42,0,1,1,-1,1,1,-1,-1.24743803343164
1,0.438968107433084,-1,5.904,110,1,43,0,-1,1,1,-1,1,1,-1.26426826394539
1,0.453549530895543,1,5.004,110,1,44,1,-1,-1,1,-1,-1,1,-1.67915036913886
1,0.583981531340214,1,5.478,110,1,45,1,1,-1,-1,1,-1,-1,-1.56358077531586
1,0.461335513661652,-1,6.143,110,1,46,0,1,1,-1,1,1,-1,-0.669640394360277
1,0.41537457747927,1,5.044,110,1,47,1,-1,1,1,-1,1,1,-1.50338316892358
1,0.610910671391593,1,5.441,110,1,48,1,1,-1,1,1,-1,1,-1.87453620909061
0,0.397928533648155,-1,6.236,110,1,49,1,1,1,-1,1,1,-1,-0.51020338855907
1,0.774103438683142,1,5.404,110,1,50,1,1,1,1,-1,1,1,-2.02628770435081
1,0.652433061241936,-1,5.561,110,1,51,0,1,1,1,1,-1,1,0.327114846160997
0,0.712956173218572,1,5.405,110,1,52,0,-1,1,1,-1,1,-1,-0.277641206225245
1,1.27045280285802,-1,5.696,110,1,53,0,-1,-1,1,1,-1,1,0.0360998021639774
1,0.594680382605929,-1,6.294,110,1,54,0,-1,-1,-1,-1,1,-1,2.07925211091008
1,0.816473774607402,-1,5.499,110,1,55,0,-1,-1,-1,-1,-1,1,-0.60543350117731
0,0.508092392334675,-1,5.077,110,1,57,1,-1,-1,-1,1,-1,-1,NaN
1,1.02952652058502,1,5.902,110,1,58,1,1,-1,-1,-1,1,-1,-1.1619631953781
1,0.472329114879813,-1,5.803,110,1,59,0,1,1,-1,1,-1,1,1.33558569973243
1,0.638252097730401,1,5.269,110,1,60,1,-1,1,1,-1,1,-1,-1.42009353116936
0,0.553221905381179,-1,5.562,110,1,61,1,1,-1,1,1,-1,1,-0.355359763138235
1,0.71193699550804,1,5.832,110,1,62,1,1,1,-1,-1,1,-1,-0.861008986218439
1,0.559035890252289,1,6.099,110,1,63,1,1,1,1,1,-1,1,0.0310405128525902
1,0.643395631607746,1,5.313,110,1,64,1,1,1,1,1,1,-1,-0.824035174725528
1,0.626453227504498,-1,5.398,110,1,65,0,1,1,1,1,1,1,-0.326972920392096
0,0.457522568665809,1,5.982,110,1,66,0,-1,1,1,-1,1,1,-0.421350884109712
0,0.358870586004286,-1,6.423,110,1,67,1,-1,-1,1,1,-1,1,-1.53273508260349
0,1.20613602395542,-1,6.436,110,1,68,1,1,-1,-1,-1,1,-1,-2.39166088018448
1,0.90881211074111,1,5.87,110,1,69,1,1,1,-1,-1,-1,1,1.8955179678697
1,0.688343608737341,-1,5.679,110,1,70,0,1,1,1,1,-1,-1,0.894509420611883
0,0.594858806415232,1,6.386,110,1,71,0,-1,1,1,-1,1,-1,-0.0881490273654377
0,0.590646033042958,-1,5.485,110,1,72,1,-1,-1,1,1,-1,1,-0.604372548814604
0,0.906063504651684,-1,6.451,110,1,73,1,1,-1,-1,-1,1,-1,-0.629508100500821
1,1.26180404704792,1,6.006,110,1,74,1,1,1,-1,-1,-1,1,0.883796995497282
1,0.870230434256882,1,5.485,110,1,75,1,1,1,1,1,-1,-1,2.05509364249699
0,0.864598114102137,-1,5.607,110,1,77,1,1,1,1,-1,1,1,NaN
1,0.633435696726337,1,5.195,110,1,78,1,1,1,1,-1,-1,1,0.718124114984389
1,0.47664627821996,-1,5.658,110,1,79,0,1,1,1,1,-1,-1,-0.382149351471745
1,0.699662902824912,1,6.174,110,1,80,1,-1,1,1,-1,1,-1,-1.38791484165048
0,0.551589578034964,-1,5.71,110,1,81,1,1,-1,1,1,-1,1,-0.0304645056578221
1,0.630992434832024,1,6.066,110,1,82,1,1,1,-1,-1,1,-1,-0.871459586112175
1,0.6260277265269,-1,6.206,110,1,83,0,1,1,1,1,-1,1,-0.395817139686846
1,0.603331841243289,1,5.066,110,1,84,1,-1,1,1,-1,1,-1,-0.423753870309208
1,0.572150725395659,1,5.322,110,1,85,1,1,-1,1,1,-1,1,-0.554352727771816
1,0.416579404188269,1,6.442,110,1,86,1,1,1,-1,1,1,-1,-0.742024597965929
0,0.5346174709548,-1,5.543,110,1,87,1,1,1,1,1,1,1,-1.86429273168773
1,0.848058729920012,1,5.464,110,1,88,1,1,1,1,-1,1,1,-0.981989624709498
1,0.860059019882101,-1,6.366,110,1,89,0,1,1,1,1,-1,1,0.649814111043324
1,0.694288066112676,-1,5.198,110,1,90,0,-1,1,1,-1,1,-1,0.699507991142141
1,0.925365232002605,-1,5.807,110,1,91,0,-1,-1,1,-1,-1,1,-0.057738061101257
1,0.650977101163335,1,5.802,110,1,92,1,-1,-1,-1,-1,-1,-1,0.958346379769356
1,0.572319205497479,1,6.428,110,1,93,1,1,-1,-1,1,-1,-1,-0.285542357431984
1,0.63227597138939,1,5.821,110,1,94,1,1,1,-1,1,1,-1,-0.740983321481102
0,0.570059246751953,1,6.341,110,1,95,0,1,1,1,1,1,1,-0.388630355799016
1,0.618876994919901,-1,6.241,110,1,96,0,-1,1,1,1,1,1,-0.754976388150609
1,0.70225732227982,-1,6.352,110,1,97,0,-1,-1,1,-1,1,1,-0.46438332263164
1,0.842014998595005,-1,5.006,110,1,98,0,-1,-1,-1,-1,-1,1,-0.0173745186636325
1,0.565233537538006,-1,5.064,110,1,99,0,-1,-1,-1,-1,-1,-1,0.624519781174625
0,0.574157933913739,-1,5.883,110,1,100,1,-1,-1,-1,-1,-1,-1,-0.785042530891587
0,0.462826056710583,-1,6.137,110,2,2,1,1,1,-1,1,-1,-1,-0.652500735041784
1,0.538489858844514,1,5.287,110,2,3,1,1,1,1,-1,1,-1,-1.49197492435108
1,0.485003591999885,1,5.617,110,2,4,1,1,1,1,1,-1,1,-0.956464997656097
1,0.539799636158023,-1,5.336,110,2,5,0,1,1,1,1,1,-1,-1.32644211270944
1,0.620000938863086,-1,6.064,110,2,6,0,-1,1,1,-1,1,1,-0.947873198202831
1,0.444156404338173,1,6.149,110,2,7,1,-1,-1,1,-1,-1,1,-0.457966233360708
1,0.459644882021166,-1,6.233,110,2,8,0,1,-1,-1,1,-1,-1,-1.63759475483966
0,0.542772353564033,-1,5.061,110,2,9,1,-1,1,-1,-1,1,-1,-1.51636754012775
0,0.59392059417678,-1,6.385,110,2,10,1,1,-1,1,-1,-1,1,-0.928450043926762
1,0.491217671999038,-1,6.285,110,2,11,0,1,1,-1,-1,-1,-1,-0.609954958957027
1,0.524338996476217,1,5.28,110,2,12,1,-1,1,1,-1,-1,-1,-1.28141684841693
1,0.491993580296366,-1,5.379,110,2,13,0,1,-1,1,1,-1,-1,-1.05064681427402
1,0.694167378768725,-1,5.728,110,2,14,0,-1,1,-1,-1,1,-1,-1.27583490442892
1,1.09792215644211,-1,6.387,110,2,15,0,-1,-1,1,-1,-1,1,-0.0583528862321151
1,0.539486506462708,1,6.083,110,2,16,1,-1,-1,-1,-1,-1,-1,1.56306444227444
1,0.525511797241961,-1,5.019,110,2,17,0,1,-1,-1,1,-1,-1,-0.949925350058804
1,0.635890850010583,1,5.346,110,2,18,1,-1,1,-1,-1,1,-1,-1.04274514826566
1,0.593332489163004,-1,5.505,110,2,19,0,1,-1,1,1,-1,1,-0.368468043515619
1,0.852580906956973,1,5.609,110,2,20,1,-1,1,-1,-1,1,-1,-0.613458711608701
1,0.899261481454232,-1,5.645,110,2,21,0,1,-1,1,1,-1,1,0.66862278227226
1,0.729247205641514,1,5.243,110,2,22,1,-1,1,-1,-1,1,-1,0.857146419550687
0,0.629416193094585,-1,6.347,110,2,23,1,1,-1,1,1,-1,1,0.116002676092765
0,0.62961482337505,1,5.537,110,2,24,0,1,1,-1,-1,1,-1,-0.40466286624489
1,0.820587323063592,-1,6.453,110,2,25,0,-1,1,1,1,-1,1,-0.403546951905118
1,0.640773818086018,1,5.941,110,2,26,1,-1,-1,1,-1,1,-1,0.533353853754864
1,0.717734277317504,-1,5.16,110,2,27,0,1,-1,-1,1,-1,1,-0.341414074304086
1,0.578556946668868,1,5.154,110,2,28,1,-1,1,-1,-1,1,-1,0.0597227108825952
0,0.534345675739132,1,5.629,110,2,29,0,1,-1,1,1,-1,1,-0.702645728692566
1,0.54436245595025,1,6.221,110,2,30,1,-1,1,-1,1,1,-1,-0.983788085245199
1,0.655337662715283,1,5.741,110,2,31,1,1,-1,1,1,1,1,-0.918104249960343
1,0.549554816901946,-1,5.157,110,2,32,0,1,1,-1,1,1,1,-0.261931159212964
1,0.548096912736582,-1,6.157,110,2,33,0,-1,1,1,-1,1,1,-0.884530064500586
1,0.652410715850237,-1,5.397,110,2,34,0,-1,-1,1,-1,-1,1,-0.89392484189737
1,0.559054934913547,1,5.668,110,2,35,1,-1,-1,-1,-1,-1,-1,-0.277762336103691
0,0.522278968754108,1,5.148,110,2,36,0,1,-1,-1,1,-1,-1,-0.823914693882745
1,0.607196740458676,1,5.651,110,2,37,1,-1,1,-1,1,1,-1,-1.06456899504827
1,0.47236430621615,-1,6.455,110,2,38,0,1,-1,1,1,1,1,-0.531769478452226
1,0.605298283109732,1,6.191,110,2,39,1,-1,1,-1,-1,1,1,-1.41983003961692
1,0.635028517302999,1,5.102,110,2,40,1,1,-1,1,1,-1,1,-0.54284446131545
1,0.820567334309999,-1,5.264,110,2,41,0,1,1,-1,1,1,-1,-0.373267352992971
1,0.625129582022964,-1,5.667,110,2,42,0,-1,1,1,-1,1,1,0.533267703209118
1,0.623708794320009,1,6.351,110,2,43,1,-1,-1,1,-1,-1,1,-0.428831443616388
1,0.692594603500766,1,5.646,110,2,44,1,1,-1,-1,1,-1,-1,-0.436878646840607
0,0.611055606370428,-1,6.026,110,2,45,1,1,1,-1,1,1,-1,-0.0663749619807334
1,0.59929805918182,1,6.467,110,2,46,1,1,1,1,-1,1,1,-0.509364439056971
1,0.476135097514998,-1,5.869,110,2,47,0,1,1,1,1,-1,1,-0.578077600415442
1,0.505341801295799,-1,5.506,110,2,48,0,-1,1,1,-1,1,-1,-1.39170976547823
0,0.650839098142569,-1,6.011,110,2,49,1,-1,-1,1,-1,-1,1,-1.18116107945266
1,0.647828121424027,-1,5.921,110,2,50,0,1,-1,-1,-1,-1,-1,-0.286292183873615
1,1.07242069911263,-1,5.919,110,2,51,0,-1,1,-1,-1,-1,-1,-0.302691741205257
1,0.572307792038373,-1,5.159,110,2,52,0,-1,-1,1,-1,-1,-1,1.47994962211831
1,0.847256968244437,1,6.082,110,2,53,1,-1,-1,-1,-1,-1,-1,-0.741053851683504
1,0.911351173251205,1,5.195,110,2,54,1,1,-1,-1,1,-1,-1,0.646468953546467
1,0.560285261619356,-1,5.465,110,2,55,0,1,1,-1,1,1,-1,0.904376421182054
0,0.541229750704588,-1,5.9,110,2,56,1,-1,1,1,-1,1,1,-0.816140052706712
1,0.842425138770523,1,5.349,110,2,57,1,1,-1,1,-1,-1,1,-0.938515793656945
1,0.674043371406697,1,5.578,110,2,58,1,1,1,-1,1,-1,-1,0.626242040592494
0,0.511846018005599,-1,5.231,110,2,59,1,1,1,1,1,1,-1,-0.162396305809035
1,0.657975322162201,1,5.901,110,2,60,1,1,1,1,-1,1,1,-1.13593159898862
1,0.757727222443464,1,6.413,110,2,61,1,1,1,1,1,-1,1,-0.247725123695496
0,0.479980264267397,1,5.41,110,2,62,0,1,1,1,1,1,-1,0.251494061351199
1,0.59623526717678,-1,6.211,110,2,63,0,-1,1,1,1,1,1,-1.36326325154409
0,0.681961372269143,-1,5.584,110,2,64,1,-1,-1,1,-1,1,1,-0.596198451697821
1,0.673223019463876,-1,6.396,110,2,65,0,1,-1,-1,-1,-1,1,-0.121093353098117
0,1.24983714424889,1,5.445,110,2,66,0,-1,1,-1,-1,-1,-1,-0.166703243778016
1,0.628202479225365,-1,6.105,110,2,67,0,-1,-1,1,1,-1,-1,2.02139213861619
0,0.754519690946836,-1,6.177,110,2,68,1,-1,-1,-1,-1,1,-1,-0.41148922802073
1,0.732737427346365,-1,5.531,110,2,69,0,1,-1,-1,-1,-1,1,0.236491317226948
1,0.860038828122015,1,6.274,110,2,70,1,-1,1,-1,-1,-1,-1,0.132888912318026
1,0.585505333407127,-1,5.091,110,2,71,0,1,-1,1,1,-1,-1,0.699424959648
1,1.03228569803377,1,6.451,110,2,72,1,-1,1,-1,-1,1,-1,-0.660424122353962
1,0.692954488038595,-1,6.436,110,2,73,0,1,-1,1,1,-1,1,1.34505139698892
1,0.724657063045925,-1,5.748,110,2,74,0,-1,1,-1,-1,1,-1,-0.0645377337594528
1,0.559423598079775,1,6.364,110,2,75,1,-1,-1,1,-1,-1,1,0.0936713950735371
0,0.62937665951813,-1,5.633,110,2,76,1,1,-1,-1,1,-1,-1,-0.821583255513827
1,0.691034688887157,1,5.954,110,2,77,1,1,1,-1,-1,1,-1,-0.404885009772985
1,0.520726937712425,-1,5.276,110,2,78,0,1,1,1,1,-1,1,-0.0743494551623766
1,0.73022600375225,1,6.486,110,2,79,1,-1,1,1,-1,1,-1,-1.07509432657391
1,0.60776787598661,-1,5.529,110,2,80,0,1,-1,1,1,-1,1,0.120746394362938
1,0.627821368935656,1,5.446,110,2,81,1,-1,1,-1,-1,1,-1,-0.528444434375613
1,0.894871558864907,1,5.118,110,2,82,1,1,-1,1,1,-1,1,-0.413635449962852
1,0.553625267569259,1,5.705,110,2,83,1,1,1,-1,1,1,-1,0.839839295250794
1,0.535498405044564,1,5.934,110,2,84,1,1,1,1,1,1,1,-0.858431304025109
0,0.54061266484041,1,5.036,110,2,85,0,1,1,1,1,1,1,-0.976166789017957
1,0.58542622114328,1,5.854,110,2,86,1,-1,1,1,1,1,1,-0.942550421381373
1,0.838224888036166,1,6.28,110,2,87,1,1,-1,1,1,1,1,-0.660902019163851
1,0.646455344849528,1,5.331,110,2,88,1,1,1,-1,1,1,1,0.608564548078542
1,0.507925212976261,-1,6.477,110,2,89,0,1,1,1,1,1,1,-0.310194007013018
0,0.644158852508554,-1,5.413,110,2,91,1,-1,-1,1,1,-1,1,NaN
1,0.660196408980482,-1,5.353,110,2,92,0,1,-1,-1,-1,1,-1,-0.322780097495548
1,0.603005715229301,1,6.242,110,2,93,1,-1,1,-1,-1,-1,1,-0.23580678343478
1,0.868501626338002,1,6.435,110,2,94,1,1,-1,1,1,-1,-1,-0.556264950308804
0,0.675468493504013,1,6.362,110,2,95,0,1,1,-1,1,1,-1,0.734055537305506
0,0.648080138736987,-1,5.879,110,2,96,1,-1,1,1,1,1,1,-0.154926705625422
1,1.18129135932395,-1,5.078,110,2,97,0,1,-1,1,-1,1,1,-0.301316186229167
1,0.610369133579297,1,5.964,110,2,98,1,-1,1,-1,-1,-1,1,1.82190734814968
1,0.778470989402194,-1,5.899,110,2,99,0,1,-1,1,1,-1,-1,-0.513339817604742
1,0.793140957233845,1,5.456,110,2,100,1,-1,1,-1,-1,1,-1,0.347012803801916
1,1.1333694621153,-1,6.293,110,3,2,0,1,1,-1,-1,1,-1,-1.19246417377828
1,0.783999671136371,-1,5.314,110,3,3,0,-1,1,1,-1,-1,1,1.67544346836042
1,0.70899003013983,-1,6.239,110,3,4,0,-1,-1,1,-1,-1,-1,0.37204121949652
1,0.570323417957297,1,5.843,110,3,5,1,-1,-1,-1,-1,-1,-1,0.0163706616586466
1,0.581459984243338,1,6.139,110,3,6,1,1,-1,-1,1,-1,-1,-0.753337849437154
1,0.804180580708817,1,5.443,110,3,7,1,1,1,-1,1,1,-1,-0.684944188160935
0,0.580068222502632,-1,5.299,110,3,8,1,1,1,1,1,1,1,0.461925997329551
1,0.573304785519213,-1,5.329,110,3,9,0,1,1,1,-1,1,1,-0.693419528928627
1,0.476461576583461,1,5.004,110,3,10,1,-1,1,1,-1,-1,1,-0.734898165331956
1,0.46686414668784,1,6.313,110,3,11,1,1,-1,1,1,-1,-1,-1.38928556726456
1,0.529855460572435,1,5.646,110,3,12,1,1,1,-1,1,1,-1,-1.46125201804697
1,0.527613471307632,1,5.518,110,3,13,1,1,1,1,1,1,1,-1.01363282797724
1,0.555222065563612,-1,6.126,110,3,14,0,1,1,1,1,1,1,-1.02862927545542
1,0.532566465403761,-1,5.044,110,3,15,0,-1,1,1,-1,1,1,-0.848245381923849
1,0.543955409575574,-1,5.512,110,3,16,0,-1,-1,1,-1,-1,1,-0.995583707770863
1,0.544463733483099,-1,6.244,110,3,17,0,-1,-1,-1,-1,-1,-1,-0.920749763453819
1,0.632246640754602,1,5.046,110,3,18,1,-1,-1,-1,-1,-1,-1,-0.917446324967687
1,0.541978952736827,1,5.666,110,3,19,1,1,-1,-1,1,-1,-1,-0.388794421081548
0,0.490846877104559,-1,5.643,110,3,20,1,1,1,-1,1,1,-1,-0.933623542965548
0,0.647731622218998,-1,5.616,110,3,21,1,1,1,1,-1,1,1,-1.28408748971437
1,1.09289451229506,-1,6.456,110,3,22,0,1,1,1,-1,-1,1,-0.303218592582448
1,0.93881082797725,1,5.644,110,3,23,1,-1,1,1,-1,-1,-1,1.54683210398483
1,0.579745675739105,1,5.222,110,3,24,1,1,-1,1,1,-1,-1,1.00936426939652
1,0.51655246484188,-1,6.335,110,3,25,0,1,1,-1,1,1,-1,-0.695386627935697
1,0.491044631614386,1,5.645,110,3,26,1,-1,1,1,-1,1,1,-1.10356056362809
1,0.612185441089423,1,5.059,110,3,27,1,1,-1,1,1,-1,1,-1.28266291665773
1,0.411878987388263,1,5.037,110,3,28,1,1,1,-1,1,1,-1,-0.502831256079261
0,0.400388649305569,-1,6.101,110,3,29,1,1,1,1,1,1,1,-1.90442485673617
1,0.490833505175033,-1,6.42,110,3,30,0,1,1,1,-1,1,1,-2.00449037677876
1,0.62364686598994,1,6.018,110,3,31,1,-1,1,1,-1,-1,1,-1.28418383840012
1,0.590410087217606,1,5.506,110,3,32,1,1,-1,1,1,-1,-1,-0.437229819660964
0,0.567182957286605,-1,5.94,110,3,33,1,1,1,-1,1,1,-1,-0.630921170243302
1,0.568168300304933,-1,5.61,110,3,34,0,1,1,1,-1,1,1,-0.772866060085913
1,0.580259943053534,-1,6.055,110,3,35,0,-1,1,1,-1,-1,1,-0.766727321557444
1,0.821265280711486,1,5.654,110,3,36,1,-1,-1,1,-1,-1,-1,-0.69225081110857
1,0.653415453314665,1,6.408,110,3,37,1,1,-1,-1,1,-1,-1,0.536274575950759
0,0.752648590398167,1,5.053,110,3,38,0,1,1,-1,1,1,-1,-0.272319952587925
1,0.60191190675414,1,5.649,110,3,39,1,-1,1,1,1,1,1,0.227710045186177
1,0.725335501892914,1,5.312,110,3,40,1,1,-1,1,1,1,1,-0.562685997703764
0,0.526913731521745,-1,6.361,110,3,41,1,1,1,-1,1,1,1,0.0969809286528873
1,0.782897828716159,1,6.367,110,3,42,1,1,1,1,-1,1,1,-1.0333228170642
1,0.810403449797377,1,6.348,110,3,43,1,1,1,1,1,-1,1,0.36706727653682
1,0.528235519872396,1,5.867,110,3,44,1,1,1,1,1,1,-1,0.489187763640419
1,0.590906658995664,-1,5.663,110,3,45,0,1,1,1,1,1,1,-1.02446207529185
1,0.694600545272806,1,5.199,110,3,46,1,-1,1,1,-1,1,1,-0.627947878487767
0,0.60647426398009,-1,6,110,3,47,1,1,-1,1,1,-1,1,-0.0561466753055481
0,0.524896455400267,1,6.476,110,3,48,0,1,1,-1,-1,1,-1,-0.535980084554242
1,0.534091278579581,1,5.515,110,3,49,1,-1,1,1,1,-1,1,-1.04688877092823
1,0.541361426535332,1,5.113,110,3,50,1,1,-1,1,1,1,-1,-0.985472252401047
1,0.508473686671095,-1,5.313,110,3,51,0,1,1,-1,1,1,1,-0.937655466932056
1,0.676501798615391,-1,5.744,110,3,52,0,-1,1,1,-1,1,1,-1.15931013832745
0,0.663807058469501,1,5.617,110,3,53,0,-1,-1,1,-1,-1,1,-0.149520614750756
1,0.740596071617801,1,6.42,110,3,54,1,-1,-1,-1,1,-1,-1,-0.21651736594883
1,0.590069969140131,1,5.905,110,3,55,1,1,-1,-1,1,1,-1,0.170617670759632
1,0.586504522363612,-1,5.853,110,3,56,0,1,1,-1,1,1,1,-0.632959117318976
1,0.655128810534734,1,5.612,110,3,57,1,-1,1,1,-1,1,1,-0.65439383100962
0,0.896172520610889,1,5.512,110,3,58,0,1,-1,1,1,-1,1,-0.26305844733573
1,0.544442631953643,1,5.882,110,3,59,1,-1,1,-1,1,1,-1,0.844977130295266
1,0.760028211322606,1,5.391,110,3,60,1,1,-1,1,1,1,1,-0.917583395855609
1,0.531603009460923,-1,6.111,110,3,61,0,1,1,-1,1,1,1,0.26221752006834
0,0.531013591934425,-1,5.449,110,3,62,1,-1,1,1,-1,1,1,-1.001987585179
1,0.741271879229316,1,5.733,110,3,63,1,1,-1,1,-1,-1,1,-1.00591103697876
0,1.24362860197107,-1,5.752,110,3,64,1,1,1,-1,1,-1,-1,0.173843455860648
1,0.923476567331818,-1,5.499,110,3,65,0,1,1,1,-1,1,-1,2.00378012705037
1,0.724760810324369,-1,5.77,110,3,66,0,-1,1,1,-1,-1,1,0.951120727052333
0,0.654533356107095,1,6.121,110,3,67,0,-1,-1,1,-1,-1,-1,0.0941776915783751
1,1.1735097259907,-1,5.964,110,3,68,0,-1,-1,-1,1,-1,-1,-0.266274410792085
1,0.728297753202241,1,5.371,110,3,69,1,-1,-1,-1,-1,1,-1,1.79853297650326
0,0.651896523396317,1,5.095,110,3,70,0,1,-1,-1,1,-1,1,0.111395093334546
1,0.693705456977113,1,5.147,110,3,71,1,-1,1,-1,1,1,-1,-0.280550816815217
1,0.608304958777808,-1,5.437,110,3,72,0,1,-1,1,1,1,1,-0.0607070714022515
0,0.83692127249833,-1,5.819,110,3,73,1,-1,1,-1,-1,1,1,-0.525320488458918
1,0.722638203737915,1,5.37,110,3,74,1,1,-1,1,-1,-1,1,0.603060037156986
1,0.770138009886068,-1,5.86,110,3,75,0,1,1,-1,1,-1,-1,0.083804715543294
1,0.664857002569988,-1,6.067,110,3,76,0,-1,1,1,-1,1,-1,0.308951421628286
1,0.993480497021665,-1,5.073,110,3,77,0,-1,-1,1,-1,-1,1,-0.210927866621335
1,0.581686106662346,-1,5.89,110,3,78,0,-1,-1,-1,-1,-1,-1,1.20954007714297
1,0.818953036593484,-1,5.685,110,3,79,0,-1,-1,-1,-1,-1,-1,-0.683569097948211
1,0.620345948049362,-1,5.966,110,3,81,0,-1,-1,-1,1,-1,-1,NaN
1,0.608928526456111,1,5.053,110,3,82,1,-1,-1,-1,-1,1,-1,-0.455998757841699
1,0.585154708043774,1,6.055,110,3,83,1,1,-1,-1,1,-1,1,-0.521696960878845
1,0.653938743454091,-1,5.611,110,3,84,0,1,1,-1,1,1,-1,-0.662542651167567
1,0.713112018227548,-1,5.466,110,3,85,0,-1,1,1,-1,1,1,-0.269488748757484
1,0.807949198762799,-1,5.638,110,3,86,0,-1,-1,1,-1,-1,1,0.0368727931599688
0,0.870161284332426,1,6.384,110,3,87,0,-1,-1,-1,-1,-1,-1,0.47846101803853
1,0.745012403645887,-1,5.999,110,3,89,0,1,-1,-1,-1,1,-1,NaN
1,0.693145907840517,-1,5.669,110,3,90,0,-1,1,-1,-1,-1,1,0.191644822857282
1,0.554748636164732,-1,5.951,110,3,91,0,-1,-1,1,-1,-1,-1,-0.0635609149677116
1,0.590652051637335,-1,6.407,110,3,92,0,-1,-1,-1,-1,-1,-1,-0.851262314205743
1,0.753659520041765,-1,5.575,110,3,93,0,-1,-1,-1,-1,-1,-1,-0.629472062772795
1,1.08375272636385,1,5.847,110,3,94,1,-1,-1,-1,-1,-1,-1,0.232457152072746
1,0.577526667691018,-1,6.29,110,3,95,0,1,-1,-1,1,-1,-1,1.51712451689622
1,0.602966475210451,1,5.248,110,3,96,1,-1,1,-1,-1,1,-1,-0.708949312565449
1,0.52401093095159,1,5.917,110,3,97,1,1,-1,1,1,-1,1,-0.556495101773171
1,0.540994455413966,1,5.278,110,3,98,1,1,1,-1,1,1,-1,-1.05286029715245
0,0.477350672110333,-1,5.869,110,3,99,1,1,1,1,1,1,1,-0.940053657287853
0,0.488525854685577,1,6.453,110,3,100,0,1,1,1,-1,1,1,-1.38269219671472
0,0.453537997135754,-1,5.986,110,4,2,1,-1,-1,1,-1,1,-1,-0.861504677546799
1,0.572358389615147,-1,6.177,110,4,3,0,1,-1,-1,-1,-1,1,-1.56367071337985
0,0.448279745801301,1,6.298,110,4,4,0,-1,1,-1,-1,-1,-1,-0.740741191416528
1,0.511344596635354,-1,6.493,110,4,5,0,-1,-1,1,1,-1,-1,-1.60491362475303
1,0.533925982831533,-1,5.7,110,4,6,0,-1,-1,-1,-1,1,-1,-1.13939791500946
1,0.50683932533957,-1,5.691,110,4,7,0,-1,-1,-1,-1,-1,1,-0.986566977920036
0,0.616378699387496,1,6.411,110,4,8,0,-1,-1,-1,-1,-1,-1,-1.17069611604869
1,0.632551522383437,-1,6.141,110,4,9,0,-1,-1,-1,1,-1,-1,-0.478689030988532
1,0.450843270394216,1,5.328,110,4,10,1,-1,-1,-1,-1,1,-1,-0.387089391703621
0,0.494183336493734,-1,6.021,110,4,11,1,1,-1,-1,1,-1,1,-1.5847466210514
0,0.704612216657551,1,5.396,110,4,12,0,1,1,-1,-1,1,-1,-1.26012898109596
1,0.560070007387367,-1,5.035,110,4,13,0,-1,1,1,1,-1,1,-0.00553484205793832
1,0.486031416270635,-1,5.158,110,4,14,0,-1,-1,1,-1,1,-1,-0.817499047432136
1,0.496936134448333,-1,5.921,110,4,15,0,-1,-1,-1,-1,-1,1,-1.31895514480262
1,0.620588017731279,1,5.246,110,4,16,1,-1,-1,-1,-1,-1,-1,-1.24048311074314
1,0.65987371184201,1,6.461,110,4,17,1,1,-1,-1,1,-1,-1,-0.454618966036378
1,0.465463005471975,-1,5.184,110,4,18,0,1,1,-1,1,1,-1,-0.237535882794537
0,0.772064595197662,-1,5.825,110,4,19,1,-1,1,1,-1,1,1,-1.47188207842215
1,0.549307874744045,-1,5.096,110,4,20,0,1,-1,1,-1,-1,1,0.317787689367687
1,0.642510201306322,1,6.475,110,4,21,1,-1,1,-1,-1,-1,-1,-0.886119612496367
1,0.535075486593087,-1,6.162,110,4,22,0,1,-1,1,1,-1,-1,-0.331843348206009
1,0.59715013729874,1,5.763,110,4,23,1,-1,1,-1,-1,1,-1,-0.978961016991718
1,0.510953851233353,1,5.67,110,4,24,1,1,-1,1,1,-1,1,-0.590775938274213
1,0.620699870220051,1,6.118,110,4,25,1,1,1,-1,1,1,-1,-1.14210148753362
1,0.423685023308281,-1,5.432,110,4,26,0,1,1,1,1,1,1,-0.453981591126738
1,0.507254928048496,1,6.028,110,4,27,1,-1,1,1,-1,1,1,-1.80447662709356
0,0.563746303064363,-1,5.628,110,4,28,1,1,-1,1,1,-1,1,-1.1677972917006
1,0.545538771566498,1,5.783,110,4,29,1,1,1,-1,-1,1,-1,-0.794360372762645
1,0.775370858968017,-1,5.402,110,4,30,0,1,1,1,1,-1,1,-0.91047013461283
0,0.73809265908676,-1,5.377,110,4,31,1,-1,1,1,-1,1,-1,0.332900576683963
1,0.696152459610857,-1,5.339,110,4,32,0,1,-1,1,-1,-1,1,0.158642605142274
1,0.683977644801416,1,5.008,110,4,33,1,-1,1,-1,-1,-1,-1,-0.0482537181201848
0,0.496416393485561,1,5.851,110,4,34,0,1,-1,1,1,-1,-1,-0.110652401876484
1,0.489795323992439,1,6.058,110,4,35,1,-1,1,-1,1,1,-1,-1.24418399423342
1,0.768133628090254,1,5.378,110,4,36,1,1,-1,1,1,1,1,-1.29167226343484
1,0.393918980915259,1,5.947,110,4,37,1,1,1,-1,1,1,1,0.299734848126792
1,0.494154122561667,1,6.23,110,4,38,1,1,1,1,1,1,1,-2.06210393775743
0,0.395306701165282,-1,5.54,110,4,39,1,1,1,1,1,1,1,-1.26033805825364
1,1.13546006106571,1,5.953,110,4,40,1,1,1,1,-1,1,1,-2.04966672704395
1,0.789386944185026,-1,5.244,110,4,41,0,1,1,1,1,-1,1,1.68196111504806
1,0.645192612666506,-1,6.5,110,4,42,0,-1,1,1,-1,1,-1,0.39626026715987
1,0.593537886315971,-1,5.188,110,4,43,0,-1,-1,1,-1,-1,1,-0.317108957174785
0,0.567272129309458,1,5.553,110,4,44,0,-1,-1,-1,-1,-1,-1,-0.61223462270222
1,0.603834740210914,-1,6.057,110,4,45,0,-1,-1,-1,1,-1,-1,-0.772310075001245
1,0.785699017332263,-1,5.054,110,4,46,0,-1,-1,-1,-1,1,-1,-0.551406031367244
1,0.6846232871967,-1,5.485,110,4,47,0,-1,-1,-1,-1,-1,1,0.379698729380743
1,0.504308394518375,1,5.767,110,4,48,1,-1,-1,-1,-1,-1,-1,-0.107315548921747
1,0.406469710887905,1,5.639,110,4,49,1,1,-1,-1,1,-1,-1,-1.18840080914594
1,0.350507670756997,1,5.742,110,4,50,1,1,1,-1,1,1,-1,-1.95117995120045
1,0.448300974821905,1,6.118,110,4,51,1,1,1,1,1,1,1,-2.4750523775247
1,0.440371068185414,-1,6.016,110,4,52,0,1,1,1,1,1,1,-1.6047461449695
0,0.793409203601186,-1,6.211,110,4,53,1,-1,1,1,-1,1,1,-1.6678651162229
1,0.514580770965949,1,5.098,110,4,54,1,1,-1,1,-1,-1,1,0.414235223966679
1,0.573618663166599,1,6.13,110,4,55,1,1,1,-1,1,-1,-1,-1.11708586838576
1,0.461763789056931,-1,5.742,110,4,56,0,1,1,1,1,1,-1,-0.732962421893391
1,0.782879753646739,1,5.345,110,4,57,1,-1,1,1,-1,1,1,-1.50010148642464
0,0.661236409699086,-1,5.208,110,4,58,1,1,-1,1,1,-1,1,0.366985623614746
1,0.580732939960399,1,5.79,110,4,59,1,1,1,-1,-1,1,-1,-0.230239921266635
1,1.00256603912385,-1,5.676,110,4,60,0,1,1,1,1,-1,1,-0.689369098973231
1,0.715086771907409,-1,6.5,110,4,61,0,-1,1,1,-1,1,-1,1.24173630634647
0,0.376260769135115,-1,5.052,110,4,62,1,-1,-1,1,-1,-1,1,0.0466529625306512
0,0.887331860203631,-1,6.129,110,4,63,1,1,-1,-1,-1,-1,-1,-2.22430457970806
1,0.730500746643884,1,6.278,110,4,64,1,1,1,-1,-1,-1,-1,0.809915192632701
1,0.899393973232691,1,5.154,110,4,65,1,1,1,1,1,-1,-1,0.122076785415759
1,0.818797827081653,-1,5.228,110,4,66,0,1,1,1,1,1,-1,0.857667449610233
1,0.878665333995741,1,5.259,110,4,67,1,-1,1,1,-1,1,1,0.525632886130523
1,0.663674469274156,1,5.38,110,4,68,1,1,-1,1,1,-1,1,0.775203134855589
1,0.709764788069151,-1,5.569,110,4,69,0,1,1,-1,1,1,-1,-0.217223848561922
1,0.554369326778215,1,5.389,110,4,70,1,-1,1,1,-1,1,1,0.0202332689114667
1,0.734418852443014,1,5.628,110,4,71,1,1,-1,1,1,-1,1,-0.853681324385949
1,0.629106345496439,-1,5.382,110,4,72,0,1,1,-1,1,1,-1,0.140995221549578
1,0.557264270256383,-1,5.062,110,4,73,0,-1,1,1,-1,1,1,-0.406404308079347
1,0.52594926054735,1,6.107,110,4,74,1,-1,-1,1,-1,-1,1,-0.835260832004649
1,0.953289681008755,-1,6.495,110,4,75,0,1,-1,-1,1,-1,-1,-1.03980228359946
0,0.665690847068618,1,5.206,110,4,76,0,-1,1,-1,-1,1,-1,1.06349205529958
1,1.10139864106804,1,5.247,110,4,77,1,-1,-1,1,1,-1,1,-0.206495083786929
0,0.826150034651619,1,6.305,110,4,78,0,1,-1,-1,1,1,-1,1.57424526912528
1,0.822196887565042,1,5.972,110,4,79,1,-1,1,-1,1,1,1,0.557247679141537
0,0.673793301450132,1,6.356,110,4,80,0,1,-1,1,1,1,1,0.540284118607733
0,1.06857616785783,-1,6.42,110,4,81,1,-1,1,-1,1,1,1,-0.163708644953092
0,1.30951491556061,1,5.186,110,4,82,0,1,-1,1,-1,1,1,1.46724827868609
1,0.903816180999456,-1,5.366,110,4,83,0,-1,1,-1,1,-1,1,2.18635383784184
1,0.857741023595736,1,6.463,110,4,84,1,-1,-1,1,-1,1,-1,0.875014094881266
1,0.64755105556651,-1,6.147,110,4,85,0,1,-1,-1,1,-1,1,0.689963292557718
1,0.595232465626395,1,5.708,110,4,86,1,-1,1,-1,-1,1,-1,-0.304204633234284
1,0.749977833424055,1,5.383,110,4,87,1,1,-1,1,1,-1,1,-0.602151708845909
1,0.690171799465134,1,5.527,110,4,88,1,1,1,-1,1,1,-1,0.215138008636566
1,0.730191556772297,-1,5.782,110,4,89,0,1,1,1,1,1,1,-0.0787683983688935
0,0.525416042392862,-1,5.513,110,4,90,1,-1,1,1,-1,1,1,0.12057955599449
1,0.727490473092985,-1,6.003,110,4,91,0,1,-1,1,-1,-1,1,-1.04338962865763
1,0.538619985812147,-1,5.825,110,4,92,0,-1,1,-1,-1,-1,-1,0.107472729084652
1,0.499131232878426,1,5.189,110,4,93,1,-1,-1,1,-1,-1,-1,-0.955610464054695
0,0.482634664042962,-1,6.299,110,4,94,1,1,-1,-1,1,-1,-1,-1.22489520330817
1,0.744546496590374,1,6.193,110,4,95,1,1,1,-1,-1,1,-1,-1.34375866860293
1,1.11830144033138,1,5.135,110,4,96,1,1,1,1,1,-1,1,0.189432423881197
1,0.586785013174449,-1,5.117,110,4,97,0,1,1,1,1,1,-1,1.62810876771511
1,0.671671589921061,-1,6.279,110,4,98,0,-1,1,1,-1,1,1,-0.65270286344567
1,1.1159145010497,1,5.576,110,4,99,1,-1,-1,1,-1,-1,1,-0.174862786583572
1,1.1329335551909,1,5.779,110,4,100,1,1,-1,-1,1,-1,-1,1.6205519626586
1,0.443058745938288,1,5.25,110,5,2,1,-1,1,1,-1,1,1,0.314658142451907
1,0.471803024497603,-1,5.843,110,5,3,0,1,-1,1,1,-1,1,-1.64634580766866
0,0.59824060385381,-1,5.736,110,5,4,1,-1,1,-1,-1,1,-1,-1.42403492156142
1,0.688538550907651,-1,6.333,110,5,5,0,1,-1,1,-1,-1,1,-0.584323491792282
1,0.576713003838449,-1,5.233,110,5,6,0,-1,1,-1,-1,-1,-1,-0.0871475737124471
1,0.538999513569252,-1,5.754,110,5,7,0,-1,-1,1,-1,-1,-1,-0.713935526702597
1,0.770894287059491,-1,5.597,110,5,8,0,-1,-1,-1,-1,-1,-1,-0.953119313652227
1,0.760555839451627,-1,5.381,110,5,9,0,-1,-1,-1,-1,-1,-1,0.312422713366096
1,0.775812269942435,1,5.072,110,5,10,1,-1,-1,-1,-1,-1,-1,0.264671886233747
1,0.582920402939635,-1,5.499,110,5,11,0,1,-1,-1,1,-1,-1,0.334913382569784
1,0.440372474190553,-1,6.491,110,5,12,0,-1,1,-1,-1,1,-1,-0.676072534921941
1,0.485555426901556,-1,5.57,110,5,13,0,-1,-1,1,-1,-1,1,-1.66785382452452
0,0.536638871271862,1,5.273,110,5,14,0,-1,-1,-1,-1,-1,-1,-1.32242041809109
0,0.683046797340467,-1,5.703,110,5,15,1,-1,-1,-1,1,-1,-1,-0.968642698268102
1,0.972483307398761,1,5.147,110,5,16,1,1,-1,-1,-1,1,-1,-0.115468819468627
0,0.976460442887401,-1,5.855,110,5,17,1,1,1,-1,1,-1,1,1.13399189914806
1,0.619628072716296,1,5.772,110,5,18,1,1,1,1,-1,1,-1,1.14842612553304
0,0.719388371766399,-1,5.906,110,5,19,1,1,1,1,1,-1,1,-0.460093799473146
0,1.17078608966222,-1,5.345,110,5,20,1,1,1,1,-1,1,-1,0.0678639121242243
1,0.627819590914442,1,5.416,110,5,21,1,1,1,1,-1,-1,1,1.79031511667133
0,0.623634824878536,-1,6.036,110,5,22,1,1,1,1,1,-1,-1,-0.413645465939248
1,1.17487096521108,-1,5.311,110,5,23,0,1,1,1,-1,1,-1,-0.437298104431661
1,1.11351160306185,1,5.247,110,5,24,1,-1,1,1,-1,-1,1,1.8026330140091
0,0.759329858909041,1,6.334,110,5,25,0,1,-1,1,1,-1,-1,1.61292828986626
1,1.17791889265209,1,5.435,110,5,26,1,-1,1,-1,1,1,-1,0.258966374912185
1,0.521064713535452,-1,5.421,110,5,27,0,1,-1,1,1,1,1,1.81179613783969
0,0.468112589652264,-1,6.07,110,5,28,1,-1,1,-1,-1,1,1,-1.07280098084188
1,0.789523973364339,-1,5.378,110,5,29,0,1,-1,1,-1,-1,1,-1.45180727847158
0,0.745418720374801,1,6.001,110,5,30,0,-1,1,-1,-1,-1,-1,0.396874138359069
1,0.624214633117845,1,5.543,110,5,31,1,-1,-1,1,1,-1,-1,0.193573122990489
0,0.965249508665693,-1,6.009,110,5,32,1,1,-1,-1,1,1,-1,-0.434011525648832
1,1.03442286091649,1,6.051,110,5,33,1,1,1,-1,-1,1,1,1.10758627893797
1,0.591018793600597,-1,5.866,110,5,34,0,1,1,1,1,-1,1,1.35236582496525
1,0.508339131160028,-1,5.781,110,5,35,0,-1,1,1,-1,1,-1,-0.627276802960108
1,0.492928487881727,1,6.492,110,5,36,1,-1,-1,1,-1,-1,1,-1.16024615224986
1,0.919637295604844,1,5.045,110,5,37,1,1,-1,-1,1,-1,-1,-1.26912078945918
1,0.576416746212999,1,5.495,110,5,38,1,1,1,-1,1,1,-1,0.936386778763228
1,0.661852695307971,-1,6.204,110,5,39,0,1,1,1,1,1,1,-0.715752770513643
1,0.45482342089872,1,5.145,110,5,40,1,-1,1,1,-1,1,1,-0.226945229483521
1,0.509761317677658,-1,5.998,110,5,41,0,1,-1,1,1,-1,1,-1.55366127379346
0,0.510168961301133,-1,5.526,110,5,42,1,-1,1,-1,-1,1,-1,-1.15036544484266
1,1.16622739014383,1,5.447,110,5,43,1,1,-1,1,-1,-1,1,-1.14753840441191
0,0.508974465678875,-1,5.978,110,5,44,1,1,1,-1,1,-1,-1,1.77651756183758
1,0.647279993592747,-1,5.477,110,5,45,0,1,1,1,-1,1,-1,-1.15582872416986
1,0.529060804113215,1,6.291,110,5,46,1,-1,1,1,-1,-1,1,-0.305685368179817
1,0.468119417003436,-1,6.164,110,5,47,0,1,-1,1,1,-1,-1,-1.01894093546331
1,0.54494859137958,1,5.467,110,5,48,1,-1,1,-1,-1,1,-1,-1.45175569737321
0,0.656379888983793,-1,5.18,110,5,49,1,1,-1,1,1,-1,1,-0.914298257397091
0,0.441456974782341,1,5.158,110,5,50,0,1,1,-1,-1,1,-1,-0.256311064885425
1,0.998818525867136,1,6.467,110,5,51,1,-1,1,1,1,-1,1,-1.65915486635827
1,0.693671457199343,-1,6.376,110,5,52,0,1,-1,1,1,1,-1,1.22849182465175
1,0.516989146197375,1,5.369,110,5,53,1,-1,1,-1,-1,1,1,-0.0608804132585406
1,0.586949496897432,1,5.821,110,5,54,1,1,-1,1,1,-1,1,-1.10057202731361
1,0.519949822165472,1,6.155,110,5,55,1,1,1,-1,1,1,-1,-0.651711632425788
0,0.788172967158971,-1,5.281,110,5,56,1,1,1,1,1,1,1,-1.08037624452084
1,0.457398340317923,-1,5.501,110,5,57,0,1,1,1,-1,1,1,0.390817164563665
1,0.488487125942811,-1,5.033,110,5,58,0,-1,1,1,-1,-1,1,-1.53369549772126
1,0.805953083994609,1,5.692,110,5,59,1,-1,-1,1,-1,-1,-1,-1.30113096061648
1,0.431339954298892,1,6.327,110,5,60,1,1,-1,-1,1,-1,-1,0.469712584003536
1,0.499058312138914,-1,5.859,110,5,61,0,1,1,-1,1,1,-1,-1.74114860703812
1,0.565525377734957,-1,6.449,110,5,62,0,-1,1,1,-1,1,1,-1.22541192878711
1,0.611307901876899,-1,5.496,110,5,63,0,-1,-1,1,-1,-1,1,-0.783216967462949
0,0.543756324575043,-1,5.082,110,5,64,1,-1,-1,-1,-1,-1,-1,-0.507904512618005
1,0.974303178795708,1,6.386,110,5,65,1,1,-1,-1,-1,-1,-1,-0.922044396116999
0,0.607365972761727,1,5.355,110,5,66,0,1,1,-1,1,-1,-1,1.14060407402239
1,0.718179406149829,1,5.66,110,5,67,1,-1,1,1,1,1,-1,-0.530783913726219
1,0.597202633196503,1,6.191,110,5,68,1,1,-1,1,1,1,1,0.0619154109688787
1,0.635066438270769,1,5.611,110,5,69,1,1,1,-1,1,1,1,-0.590465042675149
1,0.562554509941037,1,6.439,110,5,70,1,1,1,1,1,1,1,-0.373056167029442
1,0.55434309354041,1,5.227,110,5,71,1,1,1,1,1,1,1,-0.80184497056657
0,0.545019357507044,-1,6.357,110,5,72,1,1,1,1,1,1,1,-0.853848685597705
1,0.535967943327705,-1,5.138,110,5,73,0,1,1,1,-1,1,1,-0.913839023928441
1,0.85155881981791,-1,6.368,110,5,74,0,-1,1,1,-1,-1,1,-0.973067127098135
0,0.541695165117744,-1,5.929,110,5,75,1,-1,-1,1,-1,-1,-1,0.664380450759598
1,0.545708766860116,-1,5.32,110,5,76,0,1,-1,-1,-1,-1,-1,-0.935475865377856
0,0.552397775431018,1,5.662,110,5,77,0,-1,1,-1,-1,-1,-1,-0.909368251689497
1,0.846172479094093,1,5.418,110,5,78,1,-1,-1,1,1,-1,-1,-0.866281428633112
0,0.772281326700067,1,5.596,110,5,79,0,1,-1,-1,1,1,-1,0.641939143490911
1,0.627720929578572,-1,5.161,110,5,80,0,-1,1,-1,1,1,1,0.318780346544808
1,0.510647717569555,1,6.14,110,5,81,1,-1,-1,1,-1,1,1,-0.414201290952638
1,0.535478867414895,1,5.728,110,5,82,1,1,-1,-1,1,-1,1,-1.14422107517745
0,0.462285210622213,1,5.46,110,5,83,0,1,1,-1,1,1,-1,-0.976295825777123
0,0.914316965564467,-1,6.409,110,5,84,1,-1,1,1,1,1,1,-1.49611017273153
0,0.768390145210105,-1,6.296,110,5,85,1,1,-1,1,-1,1,1,0.915866978911541
1,1.09889513863891,1,6.013,110,5,86,1,1,1,-1,-1,-1,1,0.300915709462941
1,0.796334150480106,1,6.098,110,5,87,1,1,1,1,1,-1,-1,1.56619724329313
1,0.493818365358493,1,6.028,110,5,88,1,1,1,1,1,1,-1,0.427249298306613
1,0.664226762492035,-1,6.297,110,5,89,0,1,1,1,1,1,1,-1.26274188040276
1,0.478868102202796,1,6.492,110,5,90,1,-1,1,1,-1,1,1,-0.214281962900198
1,0.451160388621247,1,5.939,110,5,91,1,1,-1,1,1,-1,1,-1.37146752575976
1,0.50225019744903,1,5.349,110,5,92,1,1,1,-1,1,1,-1,-1.58225985602146
1,0.506684480324111,-1,6.054,110,5,93,0,1,1,1,1,1,1,-1.20286420686002
1,0.53782004400091,1,5.143,110,5,94,1,-1,1,1,-1,1,1,-1.17177676617215
0,0.495157533458041,1,5.436,110,5,95,0,1,-1,1,1,-1,1,-0.960866888974175
1,0.486592901321274,1,5.463,110,5,96,1,-1,1,-1,1,1,-1,-1.25316395432269
0,0.543260500749057,1,6.261,110,5,97,0,1,-1,1,1,1,1,-1.31487181037304
1,1.03361428365952,-1,5.488,110,5,98,0,-1,1,-1,1,1,1,-0.925270757301565
1,0.601820076363765,-1,5.798,110,5,99,0,-1,-1,1,-1,1,1,1.34960025253583
1,0.609930286497729,1,5.536,110,5,100,1,-1,-1,-1,-1,-1,1,-0.563225605803076
1,0.620030649031378,-1,5.872,112,1,2,0,1,1,-1,1,1,-1,1.00898117720394
1,0.970787743133315,1,5.162,112,1,3,1,-1,1,1,-1,1,1,-0.457796762829096
1,0.676929953710442,1,5.439,112,1,4,1,1,-1,1,1,-1,1,1.12782022749506
1,0.818239458715652,1,5.968,112,1,5,1,1,1,-1,1,1,-1,-0.147282993396102
1,0.623799068001972,1,5.472,112,1,6,1,1,1,1,1,1,1,0.52322029304144
1,0.919085746742439,-1,5.429,112,1,7,0,1,1,1,1,1,1,-0.436366800392691
1,0.644142589129842,-1,6.141,112,1,8,0,-1,1,1,-1,1,1,0.934265051700875
1,1.12005524089409,-1,5.328,112,1,9,0,-1,-1,1,-1,-1,1,-0.322869390021885
1,0.711585182182716,1,5.695,112,1,10,1,-1,-1,-1,-1,-1,-1,1.6336508482155
1,0.980496769880574,1,5.684,112,1,11,1,1,-1,-1,1,-1,-1,0.0292923983161105
1,0.773957030029123,-1,5.38,112,1,12,0,1,1,-1,1,1,-1,1.16301519042463
0,1.04451429510118,-1,5.227,112,1,13,1,-1,1,1,-1,1,1,0.326445885380591
1,1.31466842714326,1,6.177,112,1,14,1,1,-1,1,-1,-1,1,1.38670080269654
0,0.816363192460358,1,5.816,112,1,15,0,1,1,-1,1,-1,-1,2.20024477250235
1,0.92641183025944,-1,6.363,112,1,16,0,-1,1,1,1,1,-1,0.515101260393986
0,0.747471199600113,-1,5.128,112,1,17,1,-1,-1,1,-1,1,1,0.962344107210002
1,0.677657261148852,-1,5.074,112,1,18,0,1,-1,-1,-1,-1,1,0.203297752983594
1,0.932083184156909,1,5.648,112,1,19,1,-1,1,-1,-1,-1,-1,-0.143485186078954
1,1.12786559976712,-1,6.457,112,1,20,0,1,-1,1,1,-1,-1,0.983928931831025
1,1.03829020405192,-1,5.945,112,1,21,0,-1,1,-1,-1,1,-1,1.6582269813761
0,0.780686076259826,-1,5.133,112,1,22,1,-1,-1,1,-1,-1,1,1.36556345210202
1,0.689206459911929,-1,5.232,112,1,23,0,1,-1,-1,-1,-1,-1,0.357061807673877
1,0.640388234140119,1,6.488,112,1,24,1,-1,1,-1,-1,-1,-1,-0.0837185513805095
0,0.973848493962123,-1,6.255,112,1,25,1,1,-1,1,1,-1,-1,-0.343542883404967
0,0.838716911298434,-1,6.491,112,1,26,1,1,1,-1,-1,1,-1,1.13895321670726
1,0.870472372851054,1,5.014,112,1,27,1,1,1,1,-1,-1,1,0.610639889177649
1,0.65762367784464,-1,6.436,112,1,28,0,1,1,1,1,-1,-1,0.74207157392168
1,0.908732915770543,1,6.465,112,1,29,1,-1,1,1,-1,1,-1,-0.249615733507802
1,1.01354456525269,-1,5.097,112,1,30,0,1,-1,1,1,-1,1,0.894201219464207
1,0.858586661087884,1,5.237,112,1,31,1,-1,1,-1,-1,1,-1,1.28025360373304
1,0.752534783035117,1,6.055,112,1,32,1,1,-1,1,1,-1,1,0.693448317455067
1,0.687448542997572,-1,6.198,112,1,33,0,1,1,-1,1,1,-1,0.227175231173949
1,0.561051677661453,1,5.876,112,1,34,1,-1,1,1,-1,1,1,-0.0927507876945323
1,0.548538635249315,1,5.799,112,1,35,1,1,-1,1,1,-1,1,-0.811305566190321
0,1.17763031559116,1,5.947,112,1,36,0,1,1,-1,1,1,-1,-0.891075732888465
1,0.912598947048537,1,5.805,112,1,37,1,-1,1,1,1,1,1,1.81092959217262
0,1.12130721767107,1,6.424,112,1,38,0,1,-1,1,1,1,1,0.90921530059952
1,0.786872347679946,-1,6.151,112,1,39,0,-1,1,-1,1,1,1,1.63760183933021
0,0.959475723270771,1,5.254,112,1,40,0,-1,-1,1,-1,1,1,0.384976273213908
1,0.852641771220988,1,6.414,112,1,41,1,-1,-1,-1,1,-1,1,1.08636776185089
1,1.06454566037473,-1,6.023,112,1,42,0,1,-1,-1,1,1,-1,0.668875248390885
1,1.07074514223541,-1,5.75,112,1,43,0,-1,1,-1,-1,1,1,1.45388335704176
1,1.04258993533858,1,5.213,112,1,44,1,-1,-1,1,-1,-1,1,1.4744196198098
0,0.977279016482498,1,5.031,112,1,45,0,1,-1,-1,1,-1,-1,1.38017905369619
1,1.02544379180245,-1,5.108,112,1,46,0,-1,1,-1,1,1,-1,1.15138968016022
1,0.730933916744561,1,5.534,112,1,47,1,-1,-1,1,-1,1,1,1.32153275371561
1,0.990920570313392,1,6.307,112,1,48,1,1,-1,-1,1,-1,1,0.124173314583572
1,0.636152777033203,-1,5.335,112,1,49,0,1,1,-1,1,1,-1,1.20041534449587
1,0.63780766095033,1,5.612,112,1,50,1,-1,1,1,-1,1,1,-0.36701157824263
1,1.06346303947021,-1,5.687,112,1,51,0,1,-1,1,1,-1,1,-0.357823309983999
1,0.754272023392787,1,6.31,112,1,52,1,-1,1,-1,-1,1,-1,1.45028482913351
1,0.750250271328696,-1,5.361,112,1,53,0,1,-1,1,1,-1,1,0.235330238530367
1,0.611885304117095,-1,6.148,112,1,54,0,-1,1,-1,-1,1,-1,0.216422502598784
1,0.728163930932169,-1,5.759,112,1,55,0,-1,-1,1,-1,-1,1,-0.50456559837511
0,1.23438303835883,1,5.653,112,1,56,0,-1,-1,-1,-1,-1,-1,0.110745186419142
1,1.29016550463848,-1,5.641,112,1,57,0,-1,-1,-1,1,-1,-1,1.97738924581461
1,0.683054117004758,1,5.817,112,1,58,1,-1,-1,-1,-1,1,-1,2.13370635246954
1,0.691167748167572,-1,5.023,112,1,59,0,1,-1,-1,1,-1,1,-0.115430920254097
1,1.11711782793191,1,5.603,112,1,60,1,-1,1,-1,-1,1,-1,-0.0736685363302891
1,0.854953244830085,-1,5.147,112,1,61,0,1,-1,1,1,-1,1,1.62436359039387
1,0.993122924008276,1,6.462,112,1,62,1,-1,1,-1,-1,1,-1,0.678449969971583
0,0.865950466162303,1,6.438,112,1,63,0,1,-1,1,1,-1,1,1.20826693941461
1,0.692716670044319,1,5.945,112,1,64,1,-1,1,-1,1,1,-1,0.723651603998917
1,0.626605335368822,-1,6.249,112,1,65,0,1,-1,1,1,1,1,-0.0657516993219404
1,0.82797204529561,1,5.679,112,1,66,1,-1,1,-1,-1,1,1,-0.420492261875777
1,0.81245481951737,-1,6.281,112,1,67,0,1,-1,1,1,-1,1,0.565038897115056
1,0.913134774208629,-1,5.99,112,1,68,0,-1,1,-1,-1,1,-1,0.498128749485027
1,1.1203984717331,1,5.409,112,1,69,1,-1,-1,1,-1,-1,1,0.911291213496276
1,0.563800351419559,-1,6.017,112,1,70,0,1,-1,-1,1,-1,-1,1.63473445610302
0,1.36122127674844,1,6.255,112,1,71,0,-1,1,-1,-1,1,-1,-0.794021318046414
0,0.70485557596885,-1,5.954,112,1,72,1,-1,-1,1,1,-1,1,2.32331236655291
1,0.738222620970191,-1,5.195,112,1,73,0,1,-1,-1,-1,1,-1,-0.00431356374879941
1,0.928151706102199,1,5.974,112,1,74,1,-1,1,-1,-1,-1,1,0.159265276244823
0,1.32050498296803,1,5.069,112,1,75,0,1,-1,1,1,-1,-1,0.968979986802002
1,0.820208641329373,-1,6.326,112,1,76,0,-1,1,-1,1,1,-1,2.21591120033352
1,0.750960041124017,-1,6.054,112,1,77,0,-1,-1,1,-1,1,1,0.53172139726786
1,0.805526199566884,1,6.41,112,1,78,1,-1,-1,-1,-1,-1,1,0.219766745663834
1,0.616802741727952,-1,6.276,112,1,79,0,1,-1,-1,1,-1,-1,0.467838852218428
1,0.76755578976281,1,5.406,112,1,80,1,-1,1,-1,-1,1,-1,-0.47625680408507
1,0.700626648403613,-1,5.039,112,1,81,0,1,-1,1,1,-1,1,0.297073358353217
1,1.03417291158576,1,6.485,112,1,82,1,-1,1,-1,-1,1,-1,-0.0255963276820025
1,0.508380176004266,-1,6.437,112,1,83,0,1,-1,1,1,-1,1,1.35151115552465
1,0.556334742499075,1,5.732,112,1,84,1,-1,1,-1,-1,1,-1,-1.15996060408755
1,0.759463500728998,1,5.527,112,1,85,1,1,-1,1,1,-1,1,-0.841164955797565
1,0.613005743996382,1,6.256,112,1,86,1,1,1,-1,1,1,-1,0.259588769089281
0,1.17235039914749,-1,6.391,112,1,87,1,1,1,1,1,1,1,-0.498095467780658
0,1.08756769782485,1,5.332,112,1,88,0,1,1,1,-1,1,1,1.79503734502118
1,0.707699177514314,-1,6.406,112,1,89,0,-1,1,1,1,-1,1,1.52955218513158
1,0.721282231564146,-1,5.735,112,1,90,0,-1,-1,1,-1,1,-1,0.00992564528085107
1,0.689445492347204,-1,5.704,112,1,91,0,-1,-1,-1,-1,-1,1,0.0771622475518941
1,0.787455490647517,1,5.881,112,1,92,1,-1,-1,-1,-1,-1,-1,-0.0824921742915898
0,1.32985457597533,1,5.481,112,1,93,0,1,-1,-1,1,-1,-1,0.387596275773562
1,0.843065062993901,1,6.142,112,1,94,1,-1,1,-1,1,1,-1,2.24086355528703
1,0.717479241391175,1,6.283,112,1,95,1,1,-1,1,1,1,1,0.628927534471785
1,0.69364075815156,-1,5.866,112,1,96,0,1,1,-1,1,1,1,0.058465793654269
1,0.792780869363469,-1,6.153,112,1,97,0,-1,1,1,-1,1,1,-0.0610369342256973
1,0.639578675523808,-1,5.406,112,1,98,0,-1,-1,1,-1,-1,1,0.411433293534252
1,0.617257862648785,-1,6.035,112,1,99,0,-1,-1,-1,-1,-1,-1,-0.348016630643226
1,0.656970133245522,-1,5.137,112,1,100,0,-1,-1,-1,-1,-1,-1,-0.473648176040176
1,0.974597699590049,-1,5.439,112,2,2,0,1,-1,-1,1,-1,-1,0.747427187433631
1,0.617447466835074,1,6.274,112,2,3,1,-1,1,-1,-1,1,-1,1.14167300101302
1,1.00380206863611,1,5.511,112,2,4,1,1,-1,1,1,-1,1,-0.472561984462978
1,1.04738694157004,-1,5.46,112,2,5,0,1,1,-1,1,1,-1,1.24609383355555
0,0.914170586985165,-1,6.47,112,2,6,1,-1,1,1,-1,1,1,1.39641402002466
1,0.573567358827859,1,5.276,112,2,7,1,1,-1,1,-1,-1,1,0.915300730041222
1,0.897501440330416,-1,5.169,112,2,8,0,1,1,-1,1,-1,-1,-0.733278753127858
1,0.853969931873507,-1,5.248,112,2,9,0,-1,1,1,-1,1,-1,0.850217683686995
0,0.691323668037512,-1,5.318,112,2,10,1,-1,-1,1,-1,-1,1,0.674380001003193
1,0.822070527488904,-1,5.379,112,2,11,0,1,-1,-1,-1,-1,-1,-0.0728707972826776
1,1.17878228158042,1,6.044,112,2,12,1,-1,1,-1,-1,-1,-1,0.539740543879264
1,0.698425125367066,-1,6.03,112,2,13,0,1,-1,1,1,-1,-1,1.81438747429355
1,0.862878922334858,-1,5.535,112,2,14,0,-1,1,-1,-1,1,-1,-0.0367267497814677
1,0.655380726179828,-1,6.075,112,2,15,0,-1,-1,1,-1,-1,1,0.711084741444949
1,0.60047220188153,1,5.001,112,2,16,1,-1,-1,-1,-1,-1,-1,-0.261698767090391
1,0.787603993436278,-1,6.196,112,2,17,0,1,-1,-1,1,-1,-1,-0.571155390641849
1,0.663520860929566,1,5.41,112,2,18,1,-1,1,-1,-1,1,-1,0.388263173871477
1,0.680066030950911,-1,6.059,112,2,19,0,1,-1,1,1,-1,1,-0.218042505212003
1,0.800363011356239,1,5.198,112,2,20,1,-1,1,-1,-1,1,-1,-0.130936267160462
1,0.590767017214603,-1,6.202,112,2,21,0,1,-1,1,1,-1,1,0.445097006930743
1,1.22636346313539,1,6.303,112,2,22,1,-1,1,-1,-1,1,-1,-0.628783750239617
0,1.40980193656742,-1,6.003,112,2,23,1,1,-1,1,1,-1,1,1.95433728594822
1,0.647443323351581,-1,5.059,112,2,25,0,-1,1,1,1,-1,1,NaN
1,0.930481051774223,1,5.774,112,2,26,1,-1,-1,1,-1,1,-1,-0.304793069640842
1,0.750913086544642,-1,5.381,112,2,27,0,1,-1,-1,1,-1,1,0.977844653483107
1,0.792539175291495,1,5.232,112,2,28,1,-1,1,-1,-1,1,-1,0.219545606055536
1,1.07542172068133,1,5.476,112,2,29,1,1,-1,1,1,-1,1,0.410354915881779
1,0.948439269111987,1,5.537,112,2,30,1,1,1,-1,1,1,-1,1.48983262249922
0,1.07157502402788,1,5.152,112,2,31,0,1,1,1,1,1,1,1.04545138072967
1,0.971370675575599,-1,5.165,112,2,32,0,-1,1,1,1,1,1,1.47715963966716
1,0.874685664690332,-1,5.09,112,2,33,0,-1,-1,1,-1,1,1,1.12994325399689
0,0.631840399212706,-1,5.366,112,2,34,1,-1,-1,-1,-1,-1,1,0.759148490320301
1,0.723904692025826,1,5.58,112,2,35,1,1,-1,-1,-1,-1,-1,-0.391067576846803
0,0.727403965976009,1,5.673,112,2,36,0,1,1,-1,1,-1,-1,0.0899975832169558
0,0.718060455636078,1,5.286,112,2,37,0,-1,1,1,1,1,-1,0.107052155314852
1,0.870824874305981,-1,5.877,112,2,38,0,-1,-1,1,1,1,1,0.0613295950416283
0,0.848658158168291,1,5.26,112,2,39,0,-1,-1,-1,-1,1,1,0.743503464509922
1,0.69614767049643,1,5.152,112,2,40,1,-1,-1,-1,1,-1,1,0.652313015600343
1,0.854190644389746,-1,6.131,112,2,41,0,1,-1,-1,1,1,-1,-0.048278048236116
1,0.962737938620194,-1,5.332,112,2,42,0,-1,1,-1,-1,1,1,0.675293946081063
1,0.573891774162803,1,5.135,112,2,43,1,-1,-1,1,-1,-1,1,1.09837196156888
1,0.586831761152098,1,5.042,112,2,44,1,1,-1,-1,1,-1,-1,-0.73127895578209
1,0.863849743054743,-1,6.336,112,2,45,0,1,1,-1,1,1,-1,-0.652421117063615
1,0.506799212819715,1,5.081,112,2,46,1,-1,1,1,-1,1,1,0.715061569481239
0,0.540505830952497,-1,5.593,112,2,47,1,1,-1,1,1,-1,1,-1.17097602620679
0,1.03222466083935,-1,5.982,112,2,48,1,1,1,-1,-1,1,-1,-0.943249389819764
1,0.894250236023254,-1,6.228,112,2,49,0,1,1,1,-1,-1,1,1.34484227518093
0,0.815547280829378,-1,6.416,112,2,50,1,-1,1,1,-1,-1,-1,0.837382894286596
1,0.594099423998159,-1,5.293,112,2,51,0,1,-1,1,-1,-1,-1,0.511564801138574
0,0.579375930200513,-1,5.622,112,2,52,1,-1,1,-1,-1,-1,-1,-0.608890232574109
1,0.969832020058675,1,5.376,112,2,53,1,1,-1,1,-1,-1,-1,-0.697642922432786
0,0.89796847487105,1,6.444,112,2,54,0,1,1,-1,1,-1,-1,1.12433674618349
1,0.716620468647307,-1,5.981,112,2,55,0,-1,1,1,1,1,-1,0.852057577277346
1,0.778140593066382,-1,5.717,112,2,56,0,-1,-1,1,-1,1,1,0.0542301366527616
1,0.556913509229162,1,6.138,112,2,57,1,-1,-1,-1,-1,-1,1,0.345511471601972
1,0.70480166654761,1,5.607,112,2,58,1,1,-1,-1,1,-1,-1,-0.837487619033539
1,0.750581735653213,-1,5.163,112,2,59,0,1,1,-1,1,1,-1,-0.00458406729986198
1,0.97709378820673,1,5.383,112,2,60,1,-1,1,1,-1,1,1,0.217984666307876
1,0.824032841564076,1,5.617,112,2,61,1,1,-1,1,1,-1,1,1.15071929915135
0,1.12542527704954,1,6.136,112,2,62,0,1,1,-1,1,1,-1,0.548172599236025
1,0.857353240580778,-1,6.43,112,2,63,0,-1,1,1,1,1,1,1.65056657158815
1,1.01515230269797,-1,5.941,112,2,64,0,-1,-1,1,-1,1,1,0.688364019488955
1,0.80121612248422,-1,5.458,112,2,65,0,-1,-1,-1,-1,-1,1,1.28585917511443
0,1.18405288621852,1,5.018,112,2,66,0,-1,-1,-1,-1,-1,-1,0.448864730866598
1,1.00495776784737,-1,5.351,112,2,67,0,-1,-1,-1,1,-1,-1,1.83016538748072
1,0.688712455949826,-1,5.16,112,2,68,0,-1,-1,-1,-1,1,-1,1.25016331128884
1,0.712420349655076,-1,5.921,112,2,69,0,-1,-1,-1,-1,-1,1,-0.0862544309033644
0,0.68754450869892,1,5.95,112,2,70,0,-1,-1,-1,-1,-1,-1,0.0334408283790892
0,0.759020665114804,-1,5.674,112,2,71,1,-1,-1,-1,1,-1,-1,-0.0922571169776043
0,0.91773908245159,1,6.246,112,2,72,0,1,-1,-1,-1,1,-1,0.257525983381291
1,0.64697673601313,-1,5.473,112,2,73,0,-1,1,-1,1,-1,1,0.929079278621666
1,0.600172451961953,-1,5.023,112,2,74,0,-1,-1,1,-1,1,-1,-0.307342713738077
1,0.548063743617604,1,6.089,112,2,75,1,-1,-1,-1,-1,-1,1,-0.572921291920462
1,0.670148472059736,-1,5.523,112,2,76,0,1,-1,-1,1,-1,-1,-0.894138875299219
1,0.817850678975446,1,6.287,112,2,77,1,-1,1,-1,-1,1,-1,-0.182891782644666
1,0.522409388954657,-1,5.49,112,2,78,0,1,-1,1,1,-1,1,0.521539484544771
1,0.917619436616405,1,6.403,112,2,79,1,-1,1,-1,-1,1,-1,-1.06368595593775
1,0.958537594066001,-1,6.153,112,2,80,0,1,-1,1,1,-1,1,0.928618175032844
1,0.873649167707299,1,5.724,112,2,81,1,-1,1,-1,-1,1,-1,1.08290810599111
1,0.667049510954712,1,6.308,112,2,82,1,1,-1,1,1,-1,1,0.754955099779917
1,0.936347565886535,1,5.936,112,2,83,1,1,1,-1,1,1,-1,-0.19928420058423
1,0.856621256481048,1,5.466,112,2,84,1,1,1,1,1,1,1,1.00007257873561
1,0.774449643349726,1,5.711,112,2,85,1,1,1,1,1,1,1,0.68534323914767
0,1.13180882570305,1,5.628,112,2,86,0,1,1,1,1,1,1,0.32869619853913
1,0.729585914115887,1,5.93,112,2,87,1,-1,1,1,1,1,1,1.67057018973831
0,0.979698974180792,1,5.869,112,2,88,0,1,-1,1,1,1,1,0.11764493748847
1,1.39208692097509,-1,5.955,112,2,89,0,-1,1,-1,1,1,1,1.16013637314186
1,1.0216305650174,1,6.019,112,2,90,1,-1,-1,1,-1,1,1,2.40261005729816
1,1.29224231060925,-1,5.302,112,2,91,0,1,-1,-1,1,-1,1,1.30835682163707
1,1.03888194062165,-1,5.238,112,2,92,0,-1,1,-1,-1,1,-1,2.13939479032778
1,1.01918532536547,1,6.389,112,2,93,1,-1,-1,1,-1,-1,1,1.36757846467218
0,0.888795459656649,1,5.198,112,2,94,0,1,-1,-1,1,-1,-1,1.29988182297142
1,0.791519772345055,1,6.452,112,2,95,1,-1,1,-1,1,1,-1,0.815743870722172
1,0.99310723630424,-1,6.026,112,2,96,0,1,-1,1,1,1,1,0.405802976880131
1,0.716411842355228,-1,6.471,112,2,97,0,-1,1,-1,-1,1,1,1.20821107289154
1,0.890363738713859,1,6.462,112,2,98,1,-1,-1,1,-1,-1,1,0.0532003793324511
1,0.999829166203199,-1,5.794,112,2,99,0,1,-1,-1,1,-1,-1,0.821978784804801
1,0.797914738053805,1,5.215,112,2,100,1,-1,1,-1,-1,1,-1,1.23206852244126
1,0.648330264922151,-1,6.261,112,3,2,0,-1,1,-1,-1,1,-1,0.537781011101711
0,0.732445669855224,-1,5.919,112,3,3,1,-1,-1,1,-1,-1,1,-0.299951482163403
1,0.605812140816852,-1,5.99,112,3,4,0,1,-1,-1,-1,-1,-1,0.131480428214543
1,0.769199121287784,1,5.271,112,3,5,1,-1,1,-1,-1,-1,-1,-0.539843357722219
1,1.06978231034736,1,6.422,112,3,6,1,1,-1,1,1,-1,-1,0.304637202483306
1,1.20712416787046,1,5.017,112,3,7,1,1,1,-1,1,1,-1,1.4712379762745
1,0.704914293466572,-1,5.452,112,3,8,0,1,1,1,1,1,1,1.89841423025535
0,0.855482534602743,-1,6.091,112,3,9,1,-1,1,1,-1,1,1,-0.0040189580498527
1,0.902263845283414,1,5.341,112,3,10,1,1,-1,1,-1,-1,1,0.68063878252905
1,0.83246152362608,1,6.331,112,3,11,1,1,1,-1,1,-1,-1,0.868934556631554
0,1.13084465907377,1,5.123,112,3,12,0,1,1,1,1,1,-1,0.584163712926985
1,0.86652862387291,1,5.183,112,3,13,1,-1,1,1,1,1,1,1.66755610192033
1,1.0575489954299,-1,5.943,112,3,14,0,1,-1,1,1,1,1,0.72601208312681
0,1.13383823740878,-1,5.11,112,3,15,1,-1,1,-1,-1,1,1,1.43056221966896
1,0.946640630331785,-1,5.365,112,3,16,0,1,-1,1,-1,-1,1,1.67690596622603
0,0.523921999202685,-1,6.378,112,3,17,1,-1,1,-1,-1,-1,-1,1.03873804469439
1,0.949971003457904,1,5.278,112,3,18,1,1,-1,1,-1,-1,-1,-1.05346056512833
0,1.38078949107876,1,5.668,112,3,19,0,1,1,-1,1,-1,-1,1.05115847830401
1,1.18218228942533,-1,5.861,112,3,21,0,1,-1,1,-1,1,1,NaN
1,0.931621198619723,-1,6.466,112,3,22,0,-1,1,-1,-1,-1,1,1.82457368316862
1,1.01256736471169,1,5.743,112,3,23,1,-1,-1,1,-1,-1,-1,0.982175563369941
1,1.15009811606342,1,5.103,112,3,24,1,1,-1,-1,1,-1,-1,1.27684212925303
1,0.85292845747972,-1,6.365,112,3,25,0,1,1,-1,1,1,-1,1.72726326992303
1,0.829133379971609,1,5.597,112,3,26,1,-1,1,1,-1,1,1,0.670064186102894
1,0.760582121399239,1,5.395,112,3,27,1,1,-1,1,1,-1,1,0.569996013936644
1,0.878946362233364,1,5.53,112,3,28,1,1,1,-1,1,1,-1,0.264794097366337
1,0.660211559584241,-1,6.327,112,3,29,0,1,1,1,1,1,1,0.776334099055373
1,0.532513480788111,-1,6.002,112,3,30,0,-1,1,1,-1,1,1,-0.235725623137043
1,0.723689697027112,1,5.612,112,3,31,1,-1,-1,1,-1,-1,1,-0.995935583578618
1,0.829307281090223,1,5.967,112,3,32,1,1,-1,-1,1,-1,-1,0.0889470657022007
1,0.574672881838524,-1,6.23,112,3,33,0,1,1,-1,1,1,-1,0.570737707086979
0,0.512267417670046,-1,6.089,112,3,34,1,-1,1,1,-1,1,1,-0.726468598294329
1,0.5697117678219,-1,5.188,112,3,35,0,1,-1,1,-1,-1,1,-1.13302109650457
1,0.86850282901014,1,5.26,112,3,36,1,-1,1,-1,-1,-1,-1,-0.757132804961932
1,0.612333643127386,1,5.206,112,3,37,1,1,-1,1,1,-1,-1,0.734060434734473
1,0.783518068858029,1,6.074,112,3,38,1,1,1,-1,1,1,-1,-0.501975183772869
0,1.1368792623125,1,5.813,112,3,39,0,1,1,1,1,1,1,0.369868028435131
1,0.695173729494854,1,5.545,112,3,40,1,-1,1,1,1,1,1,1.686378779083
0,1.09702160953475,-1,5.477,112,3,41,1,1,-1,1,1,1,1,-0.0532294376455537
1,1.0981473805341,1,5.917,112,3,42,1,1,1,-1,-1,1,1,1.56016239292436
1,1.04284421187185,1,5.937,112,3,43,1,1,1,1,1,-1,1,1.56378986404791
1,0.755206122548771,1,6.462,112,3,44,1,1,1,1,1,1,-1,1.38104149913878
0,0.966366802113043,-1,6.44,112,3,45,1,1,1,1,1,1,1,0.239707354301667
1,0.988297185045667,1,6.255,112,3,46,1,1,1,1,-1,1,1,1.11167764430279
1,0.78858968264376,-1,5.157,112,3,47,0,1,1,1,1,-1,1,1.19103992779588
1,0.849206602114464,1,5.88,112,3,48,1,-1,1,1,-1,1,-1,0.392686534066022
1,0.678351128793111,1,5.59,112,3,49,1,1,-1,1,1,-1,1,0.654597830360886
1,0.80106080378664,1,5.373,112,3,50,1,1,1,-1,1,1,-1,-0.139865789881311
1,0.967779755281299,-1,6.064,112,3,51,0,1,1,1,1,1,1,0.448179072166506
1,0.929388573791584,-1,6.256,112,3,52,0,-1,1,1,-1,1,1,1.11684490405882
1,1.12218097527966,1,6.418,112,3,53,1,-1,-1,1,-1,-1,1,0.973689834861577
1,1.27802727572907,1,5.575,112,3,54,1,1,-1,-1,1,-1,-1,1.64035663272119
0,0.983345273976738,1,6.309,112,3,55,0,1,1,-1,1,1,-1,2.10027509096795
1,1.25322798674097,-1,5.878,112,3,56,0,-1,1,1,1,1,1,1.1732748376376
1,1.11536531307411,1,6.46,112,3,57,1,-1,-1,1,-1,1,1,2.03097416936874
1,1.18580811567062,1,5.437,112,3,58,1,1,-1,-1,1,-1,1,1.61881100254911
1,1.05443078273493,1,5.16,112,3,59,1,1,1,-1,1,1,-1,1.83540420089432
1,1.036439682317,-1,5.889,112,3,61,0,-1,1,1,1,1,1,NaN
1,0.769762091127632,-1,5.217,112,3,62,0,-1,-1,1,-1,1,1,1.35925453863434
1,0.605200753836471,1,5.877,112,3,63,1,-1,-1,-1,-1,-1,1,0.30722469619065
1,0.831975364985738,-1,6.341,112,3,64,0,1,-1,-1,1,-1,-1,-0.543414353064048
0,1.25465674039333,-1,5.053,112,3,65,1,-1,1,-1,-1,1,-1,0.582097702463002
1,0.56833625049785,-1,5.268,112,3,66,0,1,-1,1,-1,-1,1,2.03500385955915
0,0.73826194009871,1,5.133,112,3,67,0,-1,1,-1,-1,-1,-1,-0.765682045123355
0,1.09080391334464,-1,5.189,112,3,68,1,-1,-1,1,1,-1,-1,0.159453639766535
1,0.967659665840984,1,5.298,112,3,69,1,1,-1,-1,-1,1,-1,1.54006036783957
0,0.708284745114725,1,6.303,112,3,70,0,1,1,-1,1,-1,1,1.11640602276865
1,0.924572503939089,1,6.107,112,3,71,1,-1,1,1,1,1,-1,0.0128507442830483
1,0.83615794306661,-1,5.85,112,3,72,0,1,-1,1,1,1,1,0.955315358553163
0,0.909255017620126,-1,5.131,112,3,73,1,-1,1,-1,-1,1,1,0.599832900459022
1,1.12588165785201,1,6.272,112,3,74,1,1,-1,1,-1,-1,1,0.896232575624473
0,1.08944821544173,-1,5.274,112,3,75,1,1,1,-1,1,-1,-1,1.65200045715279
0,0.932967934174485,-1,5.264,112,3,76,1,1,1,1,-1,1,-1,1.53566213629356
1,0.85939500134009,-1,5.905,112,3,77,0,1,1,1,-1,-1,1,0.987284389010653
1,0.820622908971018,-1,5.726,112,3,78,0,-1,1,1,-1,-1,-1,0.696776426456882
0,0.665083147870973,-1,5.867,112,3,79,1,-1,-1,1,-1,-1,-1,0.533507222073675
0,0.992484736614642,1,5.109,112,3,80,0,1,-1,-1,-1,-1,-1,-0.20972511125576
1,0.729952704788047,-1,5.205,112,3,81,0,-1,1,-1,1,-1,-1,1.20599353538966
1,0.83469370059629,1,6.37,112,3,82,1,-1,-1,1,-1,1,-1,0.119422498553693
1,0.840866799170726,1,5.722,112,3,83,1,1,-1,-1,1,-1,1,0.593634251409358
1,1.254631571549,-1,5.078,112,3,84,0,1,1,-1,1,1,-1,0.619693800180359
0,0.727482923943171,-1,6.413,112,3,85,1,-1,1,1,-1,1,1,2.03493291247696
1,0.764396945754015,-1,6.18,112,3,86,0,1,-1,1,-1,-1,1,0.107436029189836
1,0.64604694542686,1,6.276,112,3,87,1,-1,1,-1,-1,-1,-1,0.282488397857824
1,0.750831015815493,-1,6.485,112,3,88,0,1,-1,1,1,-1,-1,-0.312428997303485
0,0.943378711809601,-1,5.22,112,3,89,1,-1,1,-1,-1,1,-1,0.219159048482975
1,0.635663366372683,-1,5.52,112,3,90,0,1,-1,1,-1,-1,1,1.02653047761212
0,0.921250683551989,-1,5.559,112,3,91,1,-1,1,-1,-1,-1,-1,-0.369733470570089
1,0.731720340174434,-1,6.078,112,3,92,0,1,-1,1,-1,-1,-1,0.942585946472874
1,1.04915302776681,-1,5.519,112,3,93,0,-1,1,-1,-1,-1,-1,0.127976404858191
1,0.771680830462174,1,6.18,112,3,94,1,-1,-1,1,-1,-1,-1,1.40237243409748
1,0.880292289687532,-1,6.23,112,3,95,0,1,-1,-1,1,-1,-1,0.316029315511906
1,0.746637836300579,1,6.143,112,3,96,1,-1,1,-1,-1,1,-1,0.781745613307267
1,0.917316874685639,1,5.919,112,3,97,1,1,-1,1,1,-1,1,0.199352508224248
0,1.17475695484245,1,5.688,112,3,98,0,1,1,-1,1,1,-1,0.927451862023048
1,1.17148691214788,-1,6.434,112,3,99,0,-1,1,1,1,1,1,1.80228979835786
1,0.609576507182283,1,6.055,112,3,100,1,-1,-1,1,-1,1,1,1.7924314903723
1,1.1528505867891,-1,5.56,112,4,2,0,-1,1,-1,-1,1,-1,0.237147471801873
1,0.998383242998898,-1,5.222,112,4,3,0,-1,-1,1,-1,-1,1,1.73571723558023
1,0.767399046426362,1,6.252,112,4,4,1,-1,-1,-1,-1,-1,-1,1.22695022548242
1,0.590781667658121,-1,6.28,112,4,5,0,1,-1,-1,1,-1,-1,0.296351062178095
1,0.930873462742966,-1,6.315,112,4,6,0,-1,1,-1,-1,1,-1,-0.62869604592087
0,0.895882601290396,-1,6.102,112,4,7,1,-1,-1,1,-1,-1,1,0.979335846550567
1,1.02519404155646,1,5.38,112,4,8,1,1,-1,-1,-1,-1,-1,0.843832809932738
1,0.927400846348974,-1,5.302,112,4,9,0,1,1,-1,1,-1,-1,1.32067128643078
1,0.838101072892641,1,5.802,112,4,10,1,-1,1,1,-1,1,-1,0.966117737755335
1,1.241542946761,-1,5.735,112,4,11,0,1,-1,1,1,-1,1,0.608042107233249
1,0.856830867729514,1,6.283,112,4,12,1,-1,1,-1,-1,1,-1,1.99784393323952
1,0.827478559800511,-1,5.599,112,4,13,0,1,-1,1,1,-1,1,0.68620853463887
0,1.16014050512968,-1,5.064,112,4,14,1,-1,1,-1,-1,1,-1,0.562930366038818
0,0.758213813246584,-1,5.565,112,4,15,1,1,-1,1,-1,-1,1,1.75801041285344
0,0.675460144097997,1,6.327,112,4,16,0,1,1,-1,-1,-1,-1,0.253764466850563
0,1.43598410013692,1,5.971,112,4,17,0,-1,1,1,1,-1,-1,-0.154970422086771
1,0.905277272786407,-1,5.984,112,4,18,0,-1,-1,1,1,1,-1,2.51241022711064
1,0.674730907937374,-1,5.794,112,4,19,0,-1,-1,-1,-1,1,1,0.880726755446898
0,1.13244508470052,-1,5.271,112,4,20,1,-1,-1,-1,-1,-1,1,-0.158790698971809
1,0.68504866395142,1,5.383,112,4,21,1,1,-1,-1,-1,-1,-1,1.67255779734419
1,1.30922669580468,-1,5.665,112,4,22,0,1,1,-1,1,-1,-1,-0.10511880702241
1,0.993824130277062,1,5.046,112,4,23,1,-1,1,1,-1,1,-1,2.18557534804157
0,0.993583582977408,1,5.332,112,4,24,0,1,-1,1,1,-1,1,1.21076315069531
1,0.94193378892578,1,5.955,112,4,25,1,-1,1,-1,1,1,-1,1.2099070293107
1,1.38972114696844,-1,5.914,112,4,26,0,1,-1,1,1,1,1,1.02110942983018
1,1.07938065720373,1,5.35,112,4,27,1,-1,1,-1,-1,1,1,2.39659460861459
1,1.44260410948664,-1,5.032,112,4,28,0,1,-1,1,1,-1,1,1.5028281349302
1,0.706554455675359,1,5.891,112,4,29,1,-1,1,-1,-1,1,-1,2.52867700940529
1,0.817932768664832,-1,5.666,112,4,30,0,1,-1,1,1,-1,1,0.00420039353001252
1,0.942546818916526,-1,5.958,112,4,31,0,-1,1,-1,-1,1,-1,0.521894448807873
1,1.00192799425895,-1,5.023,112,4,32,0,-1,-1,1,-1,-1,1,1.02341040478939
1,0.698837374715367,1,5.615,112,4,33,1,-1,-1,-1,-1,-1,-1,1.23948482531358
1,0.742567938425054,1,6.267,112,4,34,1,1,-1,-1,1,-1,-1,-0.0346398393256452
1,0.843467951500315,1,6.076,112,4,35,1,1,1,-1,1,1,-1,0.180021624456009
1,0.86716879261985,1,6.102,112,4,36,1,1,1,1,1,1,1,0.630617243277522
0,1.15906633562463,1,5.017,112,4,37,0,1,1,1,1,1,1,0.728623901748211
0,1.07291010912013,1,6.374,112,4,38,0,-1,1,1,1,1,1,1.75473432760094
1,0.753230470215385,-1,6.305,112,4,39,0,-1,-1,1,1,1,1,1.48156323893656
1,0.939309189544474,1,6.459,112,4,40,1,-1,-1,-1,-1,1,1,0.230443205141555
1,1.11987373080228,-1,5.47,112,4,41,0,1,-1,-1,1,-1,1,1.01124117763113
0,1.07168012860348,-1,5.931,112,4,42,1,-1,1,-1,-1,1,-1,1.63307767173885
1,1.07914374538268,-1,5.203,112,4,43,0,1,-1,1,-1,-1,1,1.47750651193114
1,0.736289693757499,1,5.609,112,4,44,1,-1,1,-1,-1,-1,-1,1.50205179558298
1,1.03295024648469,-1,5.634,112,4,45,0,1,-1,1,1,-1,-1,0.149992939977291
1,0.606488835639539,-1,5.053,112,4,46,0,-1,1,-1,-1,1,-1,1.3473274313694
0,1.12053412498062,-1,5.007,112,4,47,1,-1,-1,1,-1,-1,1,-0.535895111104127
0,1.31715564396472,1,6.075,112,4,48,0,1,-1,-1,-1,-1,-1,1.63516263299947
0,0.971359799543279,1,5.396,112,4,50,0,-1,-1,1,1,1,-1,NaN
0,1.29621152133677,1,6.338,112,4,51,0,-1,-1,-1,1,1,1,1.12990365540301
1,0.839394331517724,-1,5.865,112,4,52,0,-1,-1,-1,1,1,1,2.15024119745019
1,0.726841435819551,-1,5.804,112,4,53,0,-1,-1,-1,-1,1,1,0.613495238582473
0,0.653951314473488,1,5.809,112,4,54,0,-1,-1,-1,-1,-1,1,0.104316067954247
1,1.11747647187622,1,5.436,112,4,55,1,-1,-1,-1,1,-1,-1,-0.269420762507596
1,0.854622314663175,-1,6.42,112,4,56,0,1,-1,-1,1,1,-1,1.62549882768173
1,0.790785479990518,1,5.407,112,4,57,1,-1,1,-1,-1,1,1,0.677080760510179
1,0.91716390576039,-1,5.96,112,4,58,0,1,-1,1,1,-1,1,0.402520508161838
1,1.25094256166994,1,6.496,112,4,59,1,-1,1,-1,-1,1,-1,0.926862052366823
1,0.948940138017861,-1,5.319,112,4,60,0,1,-1,1,1,-1,1,2.02451874150448
1,0.921485854946695,-1,5.02,112,4,61,0,-1,1,-1,-1,1,-1,1.04731858454825
1,0.768751308588435,-1,5.061,112,4,62,0,-1,-1,1,-1,-1,1,0.943488645715363
1,0.961976676843733,-1,5.332,112,4,63,0,-1,-1,-1,-1,-1,-1,0.302577635561998
1,0.741154594282307,1,5.294,112,4,64,1,-1,-1,-1,-1,-1,-1,1.09557433637265
1,0.728995241286611,1,6.077,112,4,65,1,1,-1,-1,1,-1,-1,0.173283838804044
1,0.439071294728819,1,5.628,112,4,67,1,1,1,1,-1,1,1,NaN
1,0.696158467418172,1,5.982,112,4,68,1,1,1,1,1,-1,1,-1.67831911455025
1,0.827337714692476,-1,6.453,112,4,69,0,1,1,1,1,1,-1,-0.0482231969210861
1,0.741148789481485,1,5.032,112,4,70,1,-1,1,1,-1,1,1,0.562328342027575
0,0.572684327006755,1,5.986,112,4,71,0,1,-1,1,1,-1,1,0.173256139296333
1,0.773139095527767,-1,5.942,112,4,72,0,-1,1,-1,1,1,-1,-0.738727771608347
1,0.532714235278036,-1,6.432,112,4,73,0,-1,-1,1,-1,1,1,0.322706303062046
0,0.678474319880479,1,5.044,112,4,74,0,-1,-1,-1,-1,-1,1,-0.994602539093059
1,0.577379059633131,-1,5.781,112,4,75,0,-1,-1,-1,1,-1,-1,-0.13922357977256
1,0.576583361991652,1,5.652,112,4,76,1,-1,-1,-1,-1,1,-1,-0.709853347808898
0,0.856181522512998,1,5.797,112,4,77,0,1,-1,-1,1,-1,1,-0.714730634688697
1,0.878464749167506,1,6.292,112,4,78,1,-1,1,-1,1,1,-1,0.683527286609666
1,0.935629924289969,1,6.059,112,4,79,1,1,-1,1,1,1,1,0.774395684190225
1,0.833956141509589,1,6.208,112,4,80,1,1,1,-1,1,1,1,0.997360958720139
0,0.969412037842631,-1,5.76,112,4,81,1,1,1,1,1,1,1,0.590507787191304
1,0.681258482128214,1,5.816,112,4,82,1,1,1,1,-1,1,1,1.12280488198486
1,1.0435108430147,-1,6.308,112,4,83,0,1,1,1,1,-1,1,-0.124740417359738
1,0.752310652757842,1,5.767,112,4,84,1,-1,1,1,-1,1,-1,1.38330155525775
1,0.774636747390105,-1,5.483,112,4,85,0,1,-1,1,1,-1,1,0.226121741060327
0,0.92474871331342,1,6.02,112,4,86,0,-1,1,-1,-1,1,-1,0.329550535818913
1,0.48817853005221,1,5.6,112,4,87,1,-1,-1,1,1,-1,1,0.955989325326452
1,0.84127417277432,1,5.317,112,4,88,1,1,-1,-1,1,1,-1,-1.30336590162765
1,0.906743992846714,-1,5.779,112,4,89,0,1,1,-1,1,1,1,0.621406780338115
0,0.678965839059856,-1,6.29,112,4,90,1,-1,1,1,-1,1,1,0.886452155855541
1,0.653172078966236,-1,5.499,112,4,91,0,1,-1,1,-1,-1,1,-0.136662390803243
1,0.841850638766118,-1,6.43,112,4,92,0,-1,1,-1,-1,-1,-1,-0.273637475344658
0,0.99838965681829,1,6.272,112,4,93,0,-1,-1,1,-1,-1,-1,0.623829366401522
1,0.754816076063435,-1,6.197,112,4,94,0,-1,-1,-1,1,-1,-1,1.2269729455637
1,0.679322084850355,1,6.396,112,4,95,1,-1,-1,-1,-1,1,-1,0.237880285613503
1,0.798066169557387,1,5.493,112,4,96,1,1,-1,-1,1,-1,1,-0.134807237773866
1,0.931520631444073,-1,5.887,112,4,97,0,1,1,-1,1,1,-1,0.434933120336958
1,0.570930308399511,-1,5.399,112,4,98,0,-1,1,1,-1,1,1,0.981793766674084
1,0.674255636772614,1,6.184,112,4,99,1,-1,-1,1,-1,-1,1,-0.749576445641764
1,1.16068757281755,1,6.485,112,4,100,1,1,-1,-1,1,-1,-1,-0.161282742903827
1,0.52967719858043,1,5.526,112,5,2,1,-1,1,1,-1,1,1,-0.453388404527885
1,0.563929534949239,-1,6.497,112,5,3,0,1,-1,1,1,-1,1,-1.01482288080197
1,0.914637016429879,-1,5.691,112,5,4,0,-1,1,-1,-1,1,-1,-0.793211059003544
1,0.716772306163875,-1,6.49,112,5,5,0,-1,-1,1,-1,-1,1,0.917104743518096
1,0.670644637824807,-1,6.43,112,5,6,0,-1,-1,-1,-1,-1,-1,0.0549794021091227
1,0.446261774032791,-1,5.247,112,5,7,0,-1,-1,-1,-1,-1,-1,-0.180274281540556
1,0.541753149701435,-1,5.452,112,5,8,0,-1,-1,-1,-1,-1,-1,-1.62087010680315
0,0.955774563095474,-1,6.264,112,5,9,1,-1,-1,-1,-1,-1,-1,-0.93509731282999
1,0.846486751313023,1,5.021,112,5,10,1,1,-1,-1,-1,-1,-1,1.07269882574955
