correct,rt,stimulus,isi,subj_idx,session,trial,response,prevresp,prev2resp,prev3resp,prevstim,prev2stim,prev3stim,prevrt
1,0.63248463167929,-1,5.844,109,1,2,0,1,1,-1,1,1,-1,NaN
1,0.68090458937877,1,5.755,109,1,3,1,-1,1,1,-1,1,1,NaN
1,0.769877767063008,1,5.427,109,1,4,1,1,-1,1,1,-1,1,NaN
1,0.529089777772242,1,6.121,109,1,5,1,1,1,-1,1,1,-1,NaN
1,0.571196107576725,1,5.196,109,1,6,1,1,1,1,1,1,1,NaN
1,0.542837593739023,-1,6.218,109,1,7,0,1,1,1,1,1,1,NaN
1,0.691418156141481,-1,5.462,109,1,8,0,-1,1,1,-1,1,1,NaN
1,0.527600655765127,-1,5.695,109,1,9,0,-1,-1,1,-1,-1,1,NaN
1,0.896662284326339,1,6.378,109,1,10,1,-1,-1,-1,-1,-1,-1,NaN
0,0.749238037345094,1,6.021,109,1,11,0,1,-1,-1,1,-1,-1,NaN
1,0.537355524317718,-1,5.967,109,1,12,0,-1,1,-1,1,1,-1,NaN
1,0.524452793050841,-1,6.41,109,1,13,0,-1,-1,1,-1,1,1,NaN
1,0.60006718949171,1,5.876,109,1,14,1,-1,-1,-1,-1,-1,1,NaN
1,1.05043538420796,1,5.829,109,1,15,1,1,-1,-1,1,-1,-1,NaN
1,0.562061874064057,-1,5.169,109,1,16,0,1,1,-1,1,1,-1,NaN
1,0.485958679903888,-1,6.24,109,1,17,0,-1,1,1,-1,1,1,NaN
1,0.552532259677719,-1,6.34,109,1,18,0,-1,-1,1,-1,-1,1,NaN
1,0.737030545729795,1,6.467,109,1,19,1,-1,-1,-1,-1,-1,-1,NaN
1,0.492890044523847,-1,5.759,109,1,20,0,1,-1,-1,1,-1,-1,NaN
1,0.514994693071458,-1,5.306,109,1,21,0,-1,1,-1,-1,1,-1,NaN
1,0.566376740589476,-1,5.399,109,1,22,0,-1,-1,1,-1,-1,1,NaN
0,0.774528616681891,-1,5.246,109,1,23,1,-1,-1,-1,-1,-1,-1,NaN
1,0.776983077913428,1,6.361,109,1,24,1,1,-1,-1,-1,-1,-1,NaN
1,0.766227137121859,-1,5.825,109,1,25,0,1,1,-1,1,-1,-1,NaN
0,0.950936188714877,-1,5.591,109,1,26,1,-1,1,1,-1,1,-1,NaN
1,0.666098426947428,1,6.098,109,1,27,1,1,-1,1,-1,-1,1,NaN
0,0.928840013468289,-1,5.237,109,1,28,1,1,1,-1,1,-1,-1,NaN
1,0.852836424082852,1,5.104,109,1,29,1,1,1,1,-1,1,-1,NaN
1,0.751635750992136,-1,5.254,109,1,30,0,1,1,1,1,-1,1,NaN
1,0.618391028172482,1,6.427,109,1,31,1,-1,1,1,-1,1,-1,NaN
1,0.566394894442965,1,6.405,109,1,32,1,1,-1,1,1,-1,1,NaN
1,0.588337597007921,-1,5.164,109,1,33,0,1,1,-1,1,1,-1,NaN
0,0.591289036357921,1,5.017,109,1,34,0,-1,1,1,-1,1,1,NaN
1,0.738289514943062,1,6.034,109,1,35,1,-1,-1,1,1,-1,1,NaN
1,0.541174698759278,1,5.105,109,1,36,1,1,-1,-1,1,1,-1,NaN
0,0.583194968976386,1,6.11,109,1,37,0,1,1,-1,1,1,1,NaN
0,0.63240818856957,1,6.308,109,1,38,0,-1,1,1,1,1,1,NaN
1,0.551529119783481,-1,5.221,109,1,39,0,-1,-1,1,1,1,1,NaN
0,0.80196253473332,1,6.172,109,1,40,0,-1,-1,-1,-1,1,1,NaN
1,0.620683099816233,1,5.975,109,1,41,1,-1,-1,-1,1,-1,1,NaN
1,0.466162222868661,-1,5.135,109,1,42,0,1,-1,-1,1,1,-1,NaN
1,0.871245269726387,-1,5.76,109,1,43,0,-1,1,-1,-1,1,1,NaN
1,0.631048001974705,1,5.021,109,1,44,1,-1,-1,1,-1,-1,1,NaN
1,1.00193677256084,1,5.954,109,1,45,1,1,-1,-1,1,-1,-1,NaN
1,0.470491183124068,-1,6.427,109,1,46,0,1,1,-1,1,1,-1,NaN
1,0.884225173748746,1,5.965,109,1,47,1,-1,1,1,-1,1,1,NaN
1,0.978168183601156,1,5.807,109,1,48,1,1,-1,1,1,-1,1,NaN
1,0.567266648468831,-1,5.121,109,1,49,0,1,1,-1,1,1,-1,NaN
1,1.16967972455222,1,6.117,109,1,50,1,-1,1,1,-1,1,1,NaN
1,0.725792108257338,-1,6.161,109,1,51,0,1,-1,1,1,-1,1,NaN
1,0.731972823322394,1,5.415,109,1,52,1,-1,1,-1,-1,1,-1,NaN
1,0.758562032938244,-1,5.037,109,1,53,0,1,-1,1,1,-1,1,NaN
1,0.601159468064907,-1,6.479,109,1,54,0,-1,1,-1,-1,1,-1,NaN
1,0.531102185340387,-1,5.578,109,1,55,0,-1,-1,1,-1,-1,1,NaN
1,0.578793787226459,1,5.368,109,1,56,1,-1,-1,-1,-1,-1,-1,NaN
1,0.972856883577151,-1,5.659,109,1,57,0,1,-1,-1,1,-1,-1,NaN
1,0.581503998993867,1,5.285,109,1,58,1,-1,1,-1,-1,1,-1,NaN
1,0.553940994828736,-1,5.41,109,1,59,0,1,-1,1,1,-1,1,NaN
1,0.663199348157832,1,6.028,109,1,60,1,-1,1,-1,-1,1,-1,NaN
1,1.03228644631326,-1,6.008,109,1,61,0,1,-1,1,1,-1,1,NaN
1,0.567107765886249,1,5.411,109,1,62,1,-1,1,-1,-1,1,-1,NaN
1,1.047039244595,1,5.427,109,1,63,1,1,-1,1,1,-1,1,NaN
1,0.779931370504528,1,6.053,109,1,64,1,1,1,-1,1,1,-1,NaN
1,1.39218364966564,-1,5.105,109,1,65,0,1,1,1,1,1,1,NaN
0,1.21897571836689,1,5.788,109,1,66,0,-1,1,1,-1,1,1,NaN
1,0.603063105831097,-1,6.312,109,1,67,0,-1,-1,1,1,-1,1,NaN
1,0.564264667769748,-1,5.221,109,1,68,0,-1,-1,-1,-1,1,-1,NaN
1,0.651387793803224,1,6.222,109,1,69,1,-1,-1,-1,-1,-1,1,NaN
1,0.90521099502439,-1,5.948,109,1,70,0,1,-1,-1,1,-1,-1,NaN
1,0.593716073120959,1,5.061,109,1,71,1,-1,1,-1,-1,1,-1,NaN
1,0.560343343946442,-1,5.948,109,1,72,0,1,-1,1,1,-1,1,NaN
1,0.526709436027886,-1,5.333,109,1,73,0,-1,1,-1,-1,1,-1,NaN
1,0.991147888212254,1,5.177,109,1,74,1,-1,-1,1,-1,-1,1,NaN
1,0.745600847003516,1,5.797,109,1,75,1,1,-1,-1,1,-1,-1,NaN
1,0.543830782734403,-1,5.203,109,1,76,0,1,1,-1,1,1,-1,NaN
1,0.585751324607372,-1,6.39,109,1,77,0,-1,1,1,-1,1,1,NaN
1,0.50297558760667,1,5.149,109,1,78,1,-1,-1,1,-1,-1,1,NaN
1,0.505895865342609,-1,5.167,109,1,79,0,1,-1,-1,1,-1,-1,NaN
1,0.655225930199776,1,5.885,109,1,80,1,-1,1,-1,-1,1,-1,NaN
1,0.656628022699806,-1,5.177,109,1,81,0,1,-1,1,1,-1,1,NaN
1,0.661925845205587,1,5.573,109,1,82,1,-1,1,-1,-1,1,-1,NaN
1,0.516920379729527,-1,5.011,109,1,83,0,1,-1,1,1,-1,1,NaN
1,0.978492715314133,1,6.037,109,1,84,1,-1,1,-1,-1,1,-1,NaN
1,0.671945681951001,1,5.278,109,1,85,1,1,-1,1,1,-1,1,NaN
1,0.64458170655962,1,5.565,109,1,86,1,1,1,-1,1,1,-1,NaN
1,1.27771892436158,-1,5.48,109,1,87,0,1,1,1,1,1,1,NaN
1,0.777300117357299,1,6.402,109,1,88,1,-1,1,1,-1,1,1,NaN
1,0.825602154938679,-1,6.221,109,1,89,0,1,-1,1,1,-1,1,NaN
0,0.638438588828649,-1,5.015,109,1,90,1,-1,1,-1,-1,1,-1,NaN
1,0.74038897882383,-1,5.928,109,1,91,0,1,-1,1,-1,-1,1,NaN
1,0.59673306091463,1,6.211,109,1,92,1,-1,1,-1,-1,-1,-1,NaN
1,0.799159357571625,1,5.167,109,1,93,1,1,-1,1,1,-1,-1,NaN
1,0.705348181443696,1,5.395,109,1,94,1,1,1,-1,1,1,-1,NaN
1,0.828748216748863,1,5.007,109,1,95,1,1,1,1,1,1,1,NaN
1,0.71485628861501,-1,5.363,109,1,96,0,1,1,1,1,1,1,NaN
1,0.593050904538359,-1,5.46,109,1,97,0,-1,1,1,-1,1,1,NaN
1,0.713513451693871,-1,5.823,109,1,98,0,-1,-1,1,-1,-1,1,NaN
1,0.634970521605283,-1,6.129,109,1,99,0,-1,-1,-1,-1,-1,-1,NaN
1,0.814179007656094,-1,6.188,109,1,100,0,-1,-1,-1,-1,-1,-1,NaN
1,0.563743159900696,-1,5.639,109,2,2,0,1,-1,-1,1,-1,-1,NaN
1,0.618258611908459,1,5.656,109,2,3,1,-1,1,-1,-1,1,-1,NaN
1,0.919030341089638,1,5.121,109,2,4,1,1,-1,1,1,-1,1,NaN
1,0.533912817502824,-1,6.416,109,2,5,0,1,1,-1,1,1,-1,NaN
1,0.52717001588826,-1,5.01,109,2,6,0,-1,1,1,-1,1,1,NaN
1,0.644883956627382,1,5.175,109,2,7,1,-1,-1,1,-1,-1,1,NaN
0,0.680697489391605,-1,5.38,109,2,8,1,1,-1,-1,1,-1,-1,NaN
1,0.760044316480162,-1,5.23,109,2,9,0,1,1,-1,-1,1,-1,NaN
1,0.642404025472388,-1,6.334,109,2,10,0,-1,1,1,-1,-1,1,NaN
1,0.491983023975081,-1,5.132,109,2,11,0,-1,-1,1,-1,-1,-1,NaN
1,0.639982815738222,1,5.269,109,2,12,1,-1,-1,-1,-1,-1,-1,NaN
1,0.703776642846606,-1,5.547,109,2,13,0,1,-1,-1,1,-1,-1,NaN
0,0.626572354544805,-1,5.055,109,2,14,1,-1,1,-1,-1,1,-1,NaN
1,0.984704092159518,-1,5.027,109,2,15,0,1,-1,1,-1,-1,1,NaN
1,0.929009223215871,1,5.587,109,2,16,1,-1,1,-1,-1,-1,-1,NaN
1,0.63675032167157,-1,5.72,109,2,17,0,1,-1,1,1,-1,-1,NaN
1,0.620873564736939,1,6.032,109,2,18,1,-1,1,-1,-1,1,-1,NaN
1,0.710414035867871,-1,6.07,109,2,19,0,1,-1,1,1,-1,1,NaN
1,0.638925443116023,1,6.158,109,2,20,1,-1,1,-1,-1,1,-1,NaN
1,0.651300271983018,-1,5.206,109,2,21,0,1,-1,1,1,-1,1,NaN
1,0.566013603703141,1,5.173,109,2,22,1,-1,1,-1,-1,1,-1,NaN
1,0.532173780165067,-1,5.734,109,2,23,0,1,-1,1,1,-1,1,NaN
1,0.489655163091811,1,6.372,109,2,24,1,-1,1,-1,-1,1,-1,NaN
1,0.487521846212076,-1,6.352,109,2,25,0,1,-1,1,1,-1,1,NaN
1,0.55772121071459,1,5.091,109,2,26,1,-1,1,-1,-1,1,-1,NaN
1,0.496962348725901,-1,5.404,109,2,27,0,1,-1,1,1,-1,1,NaN
1,1.02053743682609,1,5.369,109,2,28,1,-1,1,-1,-1,1,-1,NaN
0,1.22281694496996,1,5.95,109,2,29,0,1,-1,1,1,-1,1,NaN
1,0.976470322521891,1,5.491,109,2,30,1,-1,1,-1,1,1,-1,NaN
0,0.95019220861559,1,5.212,109,2,31,0,1,-1,1,1,1,1,NaN
1,0.710626767396207,-1,5.966,109,2,32,0,-1,1,-1,1,1,1,NaN
1,0.609080232231463,-1,5.776,109,2,33,0,-1,-1,1,-1,1,1,NaN
1,0.681969838052282,-1,5.353,109,2,34,0,-1,-1,-1,-1,-1,1,NaN
1,0.686710341220532,1,6.477,109,2,35,1,-1,-1,-1,-1,-1,-1,NaN
1,0.800775155441443,1,5.174,109,2,36,1,1,-1,-1,1,-1,-1,NaN
0,0.748621695837755,1,5.199,109,2,37,0,1,1,-1,1,1,-1,NaN
1,1.0582110813275,-1,5.453,109,2,38,0,-1,1,1,1,1,1,NaN
1,0.603460975410599,1,5.514,109,2,39,1,-1,-1,1,-1,1,1,NaN
0,0.927230990317184,1,5.356,109,2,40,0,1,-1,-1,1,-1,1,NaN
1,0.583304445541216,-1,5.695,109,2,41,0,-1,1,-1,1,1,-1,NaN
1,1.06414604644579,-1,5.443,109,2,42,0,-1,-1,1,-1,1,1,NaN
0,0.914585761126546,1,6.092,109,2,43,0,-1,-1,-1,-1,-1,1,NaN
1,0.867902942119144,1,5.063,109,2,44,1,-1,-1,-1,1,-1,-1,NaN
1,0.675547395243484,-1,5.285,109,2,45,0,1,-1,-1,1,1,-1,NaN
1,0.620858542278256,1,5.37,109,2,46,1,-1,1,-1,-1,1,1,NaN
1,0.519113508247756,-1,6.087,109,2,47,0,1,-1,1,1,-1,1,NaN
1,0.789249501473932,-1,5.092,109,2,48,0,-1,1,-1,-1,1,-1,NaN
1,0.546168673300599,-1,5.622,109,2,49,0,-1,-1,1,-1,-1,1,NaN
1,0.936358005831607,-1,5.718,109,2,50,0,-1,-1,-1,-1,-1,-1,NaN
1,0.639671227712824,-1,6.465,109,2,51,0,-1,-1,-1,-1,-1,-1,NaN
1,0.661984276990552,-1,5.272,109,2,52,0,-1,-1,-1,-1,-1,-1,NaN
1,0.633870397055034,1,5.26,109,2,53,1,-1,-1,-1,-1,-1,-1,NaN
1,1.1980437048469,1,5.231,109,2,54,1,1,-1,-1,1,-1,-1,NaN
1,0.658066780210902,-1,5.487,109,2,55,0,1,1,-1,1,1,-1,NaN
1,1.33915887964122,-1,6.029,109,2,56,0,-1,1,1,-1,1,1,NaN
1,0.981089600591076,1,5.62,109,2,57,1,-1,-1,1,-1,-1,1,NaN
1,0.921617252583928,1,5.343,109,2,58,1,1,-1,-1,1,-1,-1,NaN
1,0.646443002660817,-1,5.039,109,2,59,0,1,1,-1,1,1,-1,NaN
1,0.766505319350472,1,6.245,109,2,60,1,-1,1,1,-1,1,1,NaN
1,0.664684176632363,1,5.811,109,2,61,1,1,-1,1,1,-1,1,NaN
1,0.646968360128994,1,5.008,109,2,62,1,1,1,-1,1,1,-1,NaN
1,0.496332766048909,-1,5.487,109,2,63,0,1,1,1,1,1,1,NaN
1,0.552729709515006,-1,6.191,109,2,64,0,-1,1,1,-1,1,1,NaN
1,0.651780396336108,-1,6.478,109,2,65,0,-1,-1,1,-1,-1,1,NaN
1,0.716135934383601,1,5.85,109,2,66,1,-1,-1,-1,-1,-1,-1,NaN
1,0.507669429098314,-1,6.205,109,2,67,0,1,-1,-1,1,-1,-1,NaN
1,0.620924850114534,-1,6.24,109,2,68,0,-1,1,-1,-1,1,-1,NaN
1,0.585905642984471,-1,5.152,109,2,69,0,-1,-1,1,-1,-1,1,NaN
1,1.05490918921714,1,5.719,109,2,70,1,-1,-1,-1,-1,-1,-1,NaN
1,0.504722106099507,-1,5.539,109,2,71,0,1,-1,-1,1,-1,-1,NaN
1,0.818589189348131,1,6.455,109,2,72,1,-1,1,-1,-1,1,-1,NaN
1,0.588575881164616,-1,6.206,109,2,73,0,1,-1,1,1,-1,1,NaN
1,1.13871427287086,-1,5.585,109,2,74,0,-1,1,-1,-1,1,-1,NaN
1,0.822792951336851,1,5.039,109,2,75,1,-1,-1,1,-1,-1,1,NaN
1,0.615964469012397,-1,6.464,109,2,76,0,1,-1,-1,1,-1,-1,NaN
1,0.663139134429002,1,5.712,109,2,77,1,-1,1,-1,-1,1,-1,NaN
1,0.59538641198742,-1,6.203,109,2,78,0,1,-1,1,1,-1,1,NaN
1,0.740161416401861,1,6.12,109,2,79,1,-1,1,-1,-1,1,-1,NaN
1,0.63912951304701,-1,6.014,109,2,80,0,1,-1,1,1,-1,1,NaN
1,0.661486776810307,1,5.391,109,2,81,1,-1,1,-1,-1,1,-1,NaN
1,1.03351622382343,1,5.318,109,2,82,1,1,-1,1,1,-1,1,NaN
1,0.704975755634223,1,5.133,109,2,83,1,1,1,-1,1,1,-1,NaN
1,0.622300100359098,1,5.438,109,2,84,1,1,1,1,1,1,1,NaN
1,0.618402690077346,1,5.999,109,2,85,1,1,1,1,1,1,1,NaN
0,0.81036313786808,1,5.297,109,2,86,0,1,1,1,1,1,1,NaN
1,1.027126656576,1,5.673,109,2,87,1,-1,1,1,1,1,1,NaN
1,0.935609221253799,1,5.234,109,2,88,1,1,-1,1,1,1,1,NaN
1,0.671786495021479,-1,5.669,109,2,89,0,1,1,-1,1,1,1,NaN
1,0.588230635301443,1,5.573,109,2,90,1,-1,1,1,-1,1,1,NaN
1,0.734390055638869,-1,5.811,109,2,91,0,1,-1,1,1,-1,1,NaN
1,0.630250992147921,-1,5.556,109,2,92,0,-1,1,-1,-1,1,-1,NaN
1,1.487546108885,1,5.367,109,2,93,1,-1,-1,1,-1,-1,1,NaN
1,1.02407779681107,1,5.666,109,2,94,1,1,-1,-1,1,-1,-1,NaN
1,0.791939307360735,1,5.508,109,2,95,1,1,1,-1,1,1,-1,NaN
1,0.866337174324144,-1,6.033,109,2,96,0,1,1,1,1,1,1,NaN
1,0.893397064745841,-1,6.332,109,2,97,0,-1,1,1,-1,1,1,NaN
1,0.644796919601504,1,6.34,109,2,98,1,-1,-1,1,-1,-1,1,NaN
1,1.05473226948561,-1,5.776,109,2,99,0,1,-1,-1,1,-1,-1,NaN
1,1.33449084641506,1,5.07,109,2,100,1,-1,1,-1,-1,1,-1,NaN
1,0.514108048329035,-1,5.025,109,3,2,0,-1,1,-1,-1,1,-1,NaN
1,0.52951272237533,-1,5.891,109,3,3,0,-1,-1,1,-1,-1,1,NaN
1,0.483355087903874,-1,5.746,109,3,4,0,-1,-1,-1,-1,-1,-1,NaN
1,0.594855155899495,1,6.325,109,3,5,1,-1,-1,-1,-1,-1,-1,NaN
1,0.668376911886298,1,5.461,109,3,6,1,1,-1,-1,1,-1,-1,NaN
1,0.595420317618846,1,5.086,109,3,7,1,1,1,-1,1,1,-1,NaN
0,0.58567983994908,-1,6.13,109,3,8,1,1,1,1,1,1,1,NaN
1,1.13101077828833,-1,5.474,109,3,9,0,1,1,1,-1,1,1,NaN
1,0.649359773065044,1,5.282,109,3,10,1,-1,1,1,-1,-1,1,NaN
1,0.690789953645435,1,6.37,109,3,11,1,1,-1,1,1,-1,-1,NaN
1,0.774016307836973,1,5.907,109,3,12,1,1,1,-1,1,1,-1,NaN
1,0.584348340971701,1,6.174,109,3,13,1,1,1,1,1,1,1,NaN
1,0.936450072898879,-1,5.305,109,3,14,0,1,1,1,1,1,1,NaN
1,1.01915088917394,-1,5.301,109,3,15,0,-1,1,1,-1,1,1,NaN
1,0.738588840216835,-1,5.253,109,3,16,0,-1,-1,1,-1,-1,1,NaN
1,0.652938460356381,-1,5.045,109,3,17,0,-1,-1,-1,-1,-1,-1,NaN
0,0.793858884871952,1,6.01,109,3,18,0,-1,-1,-1,-1,-1,-1,NaN
1,0.682210156193833,1,5.834,109,3,19,1,-1,-1,-1,1,-1,-1,NaN
1,0.657439216807688,-1,6.175,109,3,20,0,1,-1,-1,1,1,-1,NaN
0,0.751403060783559,-1,5.899,109,3,21,1,-1,1,-1,-1,1,1,NaN
1,0.676091936633384,-1,5.025,109,3,22,0,1,-1,1,-1,-1,1,NaN
1,0.629898317762127,1,6.04,109,3,23,1,-1,1,-1,-1,-1,-1,NaN
1,0.635474506868377,1,6.139,109,3,24,1,1,-1,1,1,-1,-1,NaN
1,0.687081684657642,-1,6.423,109,3,25,0,1,1,-1,1,1,-1,NaN
1,0.871497437414291,1,6.046,109,3,26,1,-1,1,1,-1,1,1,NaN
1,0.679680936051227,1,5.025,109,3,27,1,1,-1,1,1,-1,1,NaN
1,0.646635452530973,1,6.444,109,3,28,1,1,1,-1,1,1,-1,NaN
1,0.649731030199291,-1,5.295,109,3,29,0,1,1,1,1,1,1,NaN
1,0.94548579577804,-1,5.638,109,3,30,0,-1,1,1,-1,1,1,NaN
1,0.702851374622696,1,6.364,109,3,31,1,-1,-1,1,-1,-1,1,NaN
1,1.29858550973859,1,5.577,109,3,32,1,1,-1,-1,1,-1,-1,NaN
1,0.730388957575087,-1,5.81,109,3,33,0,1,1,-1,1,1,-1,NaN
1,0.698171897535758,-1,5.5,109,3,34,0,-1,1,1,-1,1,1,NaN
1,0.773950454720762,-1,5.161,109,3,35,0,-1,-1,1,-1,-1,1,NaN
1,0.644474346686366,1,6.08,109,3,36,1,-1,-1,-1,-1,-1,-1,NaN
1,0.946941929114473,1,6.11,109,3,37,1,1,-1,-1,1,-1,-1,NaN
1,0.64905719249964,1,5.795,109,3,38,1,1,1,-1,1,1,-1,NaN
1,0.746630550960617,1,5.668,109,3,39,1,1,1,1,1,1,1,NaN
1,0.555738452837431,1,6.276,109,3,40,1,1,1,1,1,1,1,NaN
0,0.734087369811277,-1,5.894,109,3,41,1,1,1,1,1,1,1,NaN
1,0.965522307471474,1,5.63,109,3,42,1,1,1,1,-1,1,1,NaN
1,0.677364435996424,1,5.5,109,3,43,1,1,1,1,1,-1,1,NaN
1,0.606629353518656,1,6.182,109,3,44,1,1,1,1,1,1,-1,NaN
1,0.86160825395109,-1,5.743,109,3,45,0,1,1,1,1,1,1,NaN
1,0.664775743864993,1,6.147,109,3,46,1,-1,1,1,-1,1,1,NaN
1,0.779438783662044,-1,5.477,109,3,47,0,1,-1,1,1,-1,1,NaN
1,0.663096863701867,1,5.006,109,3,48,1,-1,1,-1,-1,1,-1,NaN
1,0.849650693032345,1,5.964,109,3,49,1,1,-1,1,1,-1,1,NaN
1,0.694736307379571,1,5.809,109,3,50,1,1,1,-1,1,1,-1,NaN
1,0.632258370001182,-1,5.216,109,3,51,0,1,1,1,1,1,1,NaN
1,0.756791461972171,-1,5.112,109,3,52,0,-1,1,1,-1,1,1,NaN
1,0.660019835110688,1,5.458,109,3,53,1,-1,-1,1,-1,-1,1,NaN
1,0.732302542971411,1,6.361,109,3,54,1,1,-1,-1,1,-1,-1,NaN
1,0.598891509373061,1,5.485,109,3,55,1,1,1,-1,1,1,-1,NaN
1,1.03980925067572,-1,5.955,109,3,56,0,1,1,1,1,1,1,NaN
1,0.586608514491672,1,5.297,109,3,57,1,-1,1,1,-1,1,1,NaN
1,0.592074260383924,1,6.149,109,3,58,1,1,-1,1,1,-1,1,NaN
1,0.693771430393099,1,6.199,109,3,59,1,1,1,-1,1,1,-1,NaN
1,0.878058248065827,1,5.194,109,3,60,1,1,1,1,1,1,1,NaN
1,0.795501550823246,-1,6.164,109,3,61,0,1,1,1,1,1,1,NaN
1,0.67875437427665,-1,5.486,109,3,62,0,-1,1,1,-1,1,1,NaN
1,1.1392392282487,1,5.074,109,3,63,1,-1,-1,1,-1,-1,1,NaN
1,0.731499127171446,-1,5.574,109,3,64,0,1,-1,-1,1,-1,-1,NaN
1,0.599531764421044,-1,5.427,109,3,65,0,-1,1,-1,-1,1,-1,NaN
1,0.646159967244785,-1,5.596,109,3,66,0,-1,-1,1,-1,-1,1,NaN
1,0.878712397761774,1,6.338,109,3,67,1,-1,-1,-1,-1,-1,-1,NaN
1,0.973252384750595,-1,5.557,109,3,68,0,1,-1,-1,1,-1,-1,NaN
1,0.532885519872252,1,5.625,109,3,69,1,-1,1,-1,-1,1,-1,NaN
1,0.749321029611565,1,5.926,109,3,70,1,1,-1,1,1,-1,1,NaN
1,0.833123255813916,1,5.15,109,3,71,1,1,1,-1,1,1,-1,NaN
1,1.02357648822181,-1,5.805,109,3,72,0,1,1,1,1,1,1,NaN
0,0.770107149021896,-1,6.037,109,3,73,1,-1,1,1,-1,1,1,NaN
1,1.05674486927182,1,5.378,109,3,74,1,1,-1,1,-1,-1,1,NaN
1,0.695166860956306,-1,5.145,109,3,75,0,1,1,-1,1,-1,-1,NaN
1,0.643730091990619,-1,5.932,109,3,76,0,-1,1,1,-1,1,-1,NaN
1,0.710038929134498,-1,5.207,109,3,77,0,-1,-1,1,-1,-1,1,NaN
1,0.765767981903082,-1,6.246,109,3,78,0,-1,-1,-1,-1,-1,-1,NaN
1,0.838970326771232,1,6.291,109,3,80,1,1,-1,-1,-1,-1,-1,NaN
1,0.785822072755764,-1,5.358,109,3,81,0,1,1,-1,1,-1,-1,NaN
1,0.598025766748833,1,5.9,109,3,82,1,-1,1,1,-1,1,-1,NaN
0,0.942904308896686,1,5.203,109,3,83,0,1,-1,1,1,-1,1,NaN
1,0.752995114448822,-1,5.935,109,3,84,0,-1,1,-1,1,1,-1,NaN
1,0.589839827788637,-1,6.435,109,3,85,0,-1,-1,1,-1,1,1,NaN
1,0.876253169642041,-1,6.086,109,3,86,0,-1,-1,-1,-1,-1,1,NaN
1,0.606221848500354,1,5.591,109,3,87,1,-1,-1,-1,-1,-1,-1,NaN
1,0.733104379834003,-1,5.381,109,3,88,0,1,-1,-1,1,-1,-1,NaN
1,0.591784356427524,-1,5.561,109,3,89,0,-1,1,-1,-1,1,-1,NaN
1,0.62929706964951,-1,6.296,109,3,90,0,-1,-1,1,-1,-1,1,NaN
1,0.965059340900552,-1,6.1,109,3,91,0,-1,-1,-1,-1,-1,-1,NaN
1,0.709264603369775,-1,5.178,109,3,92,0,-1,-1,-1,-1,-1,-1,NaN
1,0.644204205268579,-1,5.968,109,3,93,0,-1,-1,-1,-1,-1,-1,NaN
1,0.757701910742981,1,6.327,109,3,94,1,-1,-1,-1,-1,-1,-1,NaN
1,0.816980575805246,-1,6.172,109,3,95,0,1,-1,-1,1,-1,-1,NaN
1,0.620555201992829,1,5.034,109,3,96,1,-1,1,-1,-1,1,-1,NaN
1,0.604067689651856,1,5.425,109,3,97,1,1,-1,1,1,-1,1,NaN
1,0.53107131336219,1,5.813,109,3,98,1,1,1,-1,1,1,-1,NaN
1,0.594800088591001,-1,6.309,109,3,99,0,1,1,1,1,1,1,NaN
1,0.751263043065592,1,5.342,109,3,100,1,-1,1,1,-1,1,1,NaN
1,0.753417228394028,-1,5.592,109,4,2,0,-1,1,-1,-1,1,-1,NaN
1,0.581555697903241,-1,6.292,109,4,3,0,-1,-1,1,-1,-1,1,NaN
0,0.600965875345537,1,5.832,109,4,4,0,-1,-1,-1,-1,-1,-1,NaN
1,0.943866077044731,-1,6.117,109,4,5,0,-1,-1,-1,1,-1,-1,NaN
1,0.876354665219878,-1,5.359,109,4,6,0,-1,-1,-1,-1,1,-1,NaN
1,0.647282944864855,-1,5.801,109,4,7,0,-1,-1,-1,-1,-1,1,NaN
1,0.874548037933891,1,5.168,109,4,8,1,-1,-1,-1,-1,-1,-1,NaN
1,0.704236752947509,-1,5.49,109,4,9,0,1,-1,-1,1,-1,-1,NaN
1,0.984720486626429,1,5.738,109,4,10,1,-1,1,-1,-1,1,-1,NaN
1,0.669789079509428,-1,5.68,109,4,11,0,1,-1,1,1,-1,1,NaN
1,1.14606310844647,1,5.322,109,4,12,1,-1,1,-1,-1,1,-1,NaN
1,0.91846223169523,-1,5.404,109,4,13,0,1,-1,1,1,-1,1,NaN
1,0.803005373943051,-1,6.477,109,4,14,0,-1,1,-1,-1,1,-1,NaN
1,0.75060796823891,-1,5.024,109,4,15,0,-1,-1,1,-1,-1,1,NaN
1,0.731282576119156,1,5.264,109,4,16,1,-1,-1,-1,-1,-1,-1,NaN
1,0.691899002622449,1,5.529,109,4,17,1,1,-1,-1,1,-1,-1,NaN
1,0.59436076815382,-1,5.212,109,4,18,0,1,1,-1,1,1,-1,NaN
1,0.643672633719689,-1,5.149,109,4,19,0,-1,1,1,-1,1,1,NaN
1,0.639748189289094,-1,5.784,109,4,20,0,-1,-1,1,-1,-1,1,NaN
0,0.556873483011259,1,5.479,109,4,21,0,-1,-1,-1,-1,-1,-1,NaN
1,0.610889291668173,-1,5.691,109,4,22,0,-1,-1,-1,1,-1,-1,NaN
1,0.566231128596883,1,5.608,109,4,23,1,-1,-1,-1,-1,1,-1,NaN
1,0.682651818882732,1,5.712,109,4,24,1,1,-1,-1,1,-1,1,NaN
1,0.946775824936594,1,5.525,109,4,25,1,1,1,-1,1,1,-1,NaN
1,0.665270721996421,-1,5.618,109,4,26,0,1,1,1,1,1,1,NaN
1,0.622493915044288,1,5.145,109,4,27,1,-1,1,1,-1,1,1,NaN
1,0.610247137971783,-1,5.399,109,4,28,0,1,-1,1,1,-1,1,NaN
1,0.724410850207278,1,6.445,109,4,29,1,-1,1,-1,-1,1,-1,NaN
1,0.648625676523807,-1,5.61,109,4,30,0,1,-1,1,1,-1,1,NaN
0,0.814564117919872,-1,5.207,109,4,31,1,-1,1,-1,-1,1,-1,NaN
1,0.682104626972432,-1,5.901,109,4,32,0,1,-1,1,-1,-1,1,NaN
1,0.674084544069956,1,5.886,109,4,33,1,-1,1,-1,-1,-1,-1,NaN
1,0.806205694961136,1,5.397,109,4,34,1,1,-1,1,1,-1,-1,NaN
1,0.592516291491847,1,5.33,109,4,35,1,1,1,-1,1,1,-1,NaN
1,0.642795515557737,1,5.625,109,4,36,1,1,1,1,1,1,1,NaN
1,0.883175661813766,1,5.69,109,4,37,1,1,1,1,1,1,1,NaN
1,0.650873003772176,1,6.357,109,4,38,1,1,1,1,1,1,1,NaN
1,0.786922399985087,-1,5.704,109,4,39,0,1,1,1,1,1,1,NaN
1,0.636851027780722,1,6.404,109,4,40,1,-1,1,1,-1,1,1,NaN
1,0.68974914449791,-1,6.001,109,4,41,0,1,-1,1,1,-1,1,NaN
1,0.624294140280654,-1,5.229,109,4,42,0,-1,1,-1,-1,1,-1,NaN
1,0.643278824264598,-1,5.754,109,4,43,0,-1,-1,1,-1,-1,1,NaN
0,0.620335643441649,1,5.415,109,4,44,0,-1,-1,-1,-1,-1,-1,NaN
1,0.692300387051546,-1,6.418,109,4,45,0,-1,-1,-1,1,-1,-1,NaN
1,0.641589545671195,-1,6.455,109,4,46,0,-1,-1,-1,-1,1,-1,NaN
1,0.705744750279337,-1,5.094,109,4,47,0,-1,-1,-1,-1,-1,1,NaN
1,0.744856577269275,1,6.158,109,4,48,1,-1,-1,-1,-1,-1,-1,NaN
0,0.718246134710171,1,6.396,109,4,49,0,1,-1,-1,1,-1,-1,NaN
1,0.580642312897908,1,5.454,109,4,50,1,-1,1,-1,1,1,-1,NaN
1,0.736261096037197,1,5.758,109,4,51,1,1,-1,1,1,1,1,NaN
0,0.750154121908054,-1,6.383,109,4,52,1,1,1,-1,1,1,1,NaN
1,0.593639821903707,-1,6.479,109,4,53,0,1,1,1,-1,1,1,NaN
1,0.58130773711855,1,6.009,109,4,54,1,-1,1,1,-1,-1,1,NaN
1,0.917460347432097,1,6.154,109,4,55,1,1,-1,1,1,-1,-1,NaN
1,0.772451660335719,-1,6.353,109,4,56,0,1,1,-1,1,1,-1,NaN
1,1.15896821204205,1,6.04,109,4,57,1,-1,1,1,-1,1,1,NaN
1,1.22108431719971,-1,6.332,109,4,58,0,1,-1,1,1,-1,1,NaN
1,0.945768523252809,1,5.348,109,4,59,1,-1,1,-1,-1,1,-1,NaN
1,0.792101362528228,-1,5.312,109,4,60,0,1,-1,1,1,-1,1,NaN
1,0.961942895110042,-1,5.494,109,4,61,0,-1,1,-1,-1,1,-1,NaN
1,0.66281659878041,-1,5.577,109,4,62,0,-1,-1,1,-1,-1,1,NaN
1,0.730387871279163,-1,5.181,109,4,63,0,-1,-1,-1,-1,-1,-1,NaN
1,0.908910561225639,1,6.023,109,4,64,1,-1,-1,-1,-1,-1,-1,NaN
1,0.585567739341059,1,5.852,109,4,65,1,1,-1,-1,1,-1,-1,NaN
1,0.639428003412831,-1,5.645,109,4,66,0,1,1,-1,1,1,-1,NaN
1,0.963537087368422,1,6.387,109,4,67,1,-1,1,1,-1,1,1,NaN
1,0.790374332629654,1,5.688,109,4,68,1,1,-1,1,1,-1,1,NaN
1,0.652855009773702,-1,6.162,109,4,69,0,1,1,-1,1,1,-1,NaN
1,0.848145838209348,1,5.812,109,4,70,1,-1,1,1,-1,1,1,NaN
1,0.679400024190727,1,6.103,109,4,71,1,1,-1,1,1,-1,1,NaN
1,0.656281483612474,-1,5.977,109,4,72,0,1,1,-1,1,1,-1,NaN
1,0.748511835489808,-1,5.098,109,4,73,0,-1,1,1,-1,1,1,NaN
1,0.740923249602929,1,5.427,109,4,74,1,-1,-1,1,-1,-1,1,NaN
1,0.662926146935206,-1,5.798,109,4,75,0,1,-1,-1,1,-1,-1,NaN
1,0.659962068570167,1,5.733,109,4,76,1,-1,1,-1,-1,1,-1,NaN
1,0.708236703911098,1,5.067,109,4,77,1,1,-1,1,1,-1,1,NaN
1,0.788676535295963,1,5.854,109,4,78,1,1,1,-1,1,1,-1,NaN
1,0.754560164365103,1,5.429,109,4,79,1,1,1,1,1,1,1,NaN
1,0.761283492753137,1,6.115,109,4,80,1,1,1,1,1,1,1,NaN
1,1.14603872906991,-1,5.948,109,4,81,0,1,1,1,1,1,1,NaN
1,0.878067597466725,1,6.12,109,4,82,1,-1,1,1,-1,1,1,NaN
1,0.990486697048254,-1,6.018,109,4,83,0,1,-1,1,1,-1,1,NaN
1,1.02554801668521,1,6.003,109,4,84,1,-1,1,-1,-1,1,-1,NaN
1,0.639014938771652,-1,5.393,109,4,85,0,1,-1,1,1,-1,1,NaN
1,0.680118320246038,1,5.677,109,4,86,1,-1,1,-1,-1,1,-1,NaN
1,0.630393258297772,1,5.676,109,4,87,1,1,-1,1,1,-1,1,NaN
1,0.531022821362058,1,5.538,109,4,88,1,1,1,-1,1,1,-1,NaN
1,0.652281058639346,-1,6.08,109,4,89,0,1,1,1,1,1,1,NaN
1,0.612219519976861,-1,5.84,109,4,90,0,-1,1,1,-1,1,1,NaN
1,0.684913224824413,-1,6.42,109,4,91,0,-1,-1,1,-1,-1,1,NaN
1,0.690468068531118,-1,6.284,109,4,92,0,-1,-1,-1,-1,-1,-1,NaN
1,0.692624678164066,1,5.301,109,4,93,1,-1,-1,-1,-1,-1,-1,NaN
1,0.75543244045366,-1,5.012,109,4,94,0,1,-1,-1,1,-1,-1,NaN
1,0.592640324679451,1,6.328,109,4,95,1,-1,1,-1,-1,1,-1,NaN
1,1.20077382593263,1,5.037,109,4,96,1,1,-1,1,1,-1,1,NaN
1,0.768471791292541,-1,5.61,109,4,97,0,1,1,-1,1,1,-1,NaN
0,0.730870319252062,-1,5.965,109,4,98,1,-1,1,1,-1,1,1,NaN
1,0.76065649685188,1,6.086,109,4,99,1,1,-1,1,-1,-1,1,NaN
1,0.589471702374794,1,6.265,109,4,100,1,1,1,-1,1,-1,-1,NaN
1,0.650540648966853,1,6.174,109,5,2,1,-1,1,1,-1,1,1,NaN
1,0.635329808565075,-1,5.319,109,5,3,0,1,-1,1,1,-1,1,NaN
1,0.570137900047484,-1,5.18,109,5,4,0,-1,1,-1,-1,1,-1,NaN
0,0.675644654169446,-1,5.235,109,5,5,1,-1,-1,1,-1,-1,1,NaN
1,0.55377669122754,-1,5.441,109,5,6,0,1,-1,-1,-1,-1,-1,NaN
1,0.832920445436685,-1,6.381,109,5,7,0,-1,1,-1,-1,-1,-1,NaN
0,1.0808412455608,-1,5.138,109,5,8,1,-1,-1,1,-1,-1,-1,NaN
1,0.617295358970296,-1,5.185,109,5,9,0,1,-1,-1,-1,-1,-1,NaN
1,0.787766033567095,1,5.023,109,5,10,1,-1,1,-1,-1,-1,-1,NaN
0,1.08362814463544,-1,5.932,109,5,11,1,1,-1,1,1,-1,-1,NaN
1,0.643112723682862,-1,5.695,109,5,12,0,1,1,-1,-1,1,-1,NaN
1,0.696048723773856,-1,6.131,109,5,13,0,-1,1,1,-1,-1,1,NaN
0,0.577935450895893,1,5.382,109,5,14,0,-1,-1,1,-1,-1,-1,NaN
1,1.0926716229369,-1,5.538,109,5,15,0,-1,-1,-1,1,-1,-1,NaN
1,0.886545820229003,1,5.483,109,5,16,1,-1,-1,-1,-1,1,-1,NaN
1,1.32630884368155,-1,5.606,109,5,17,0,1,-1,-1,1,-1,1,NaN
1,0.68463021196294,1,5.923,109,5,18,1,-1,1,-1,-1,1,-1,NaN
1,0.769323744532812,-1,5.384,109,5,19,0,1,-1,1,1,-1,1,NaN
0,0.722533990297961,-1,6.349,109,5,20,1,-1,1,-1,-1,1,-1,NaN
1,0.711332898117689,1,5.759,109,5,21,1,1,-1,1,-1,-1,1,NaN
1,0.682169378100298,-1,5.052,109,5,22,0,1,1,-1,1,-1,-1,NaN
1,1.20520572176792,-1,5.571,109,5,23,0,-1,1,1,-1,1,-1,NaN
1,1.07102799360655,1,6.333,109,5,24,1,-1,-1,1,-1,-1,1,NaN
1,0.62691387862651,1,5.77,109,5,25,1,1,-1,-1,1,-1,-1,NaN
0,0.972379138744145,1,6.261,109,5,26,0,1,1,-1,1,1,-1,NaN
0,0.665365608594584,-1,5.228,109,5,27,1,-1,1,1,1,1,1,NaN
1,0.761517250297402,-1,6.111,109,5,28,0,1,-1,1,-1,1,1,NaN
1,0.8657046933331,-1,6.181,109,5,29,0,-1,1,-1,-1,-1,1,NaN
1,0.561228356793436,1,5.966,109,5,30,1,-1,-1,1,-1,-1,-1,NaN
1,0.625872877913935,1,5.979,109,5,31,1,1,-1,-1,1,-1,-1,NaN
1,0.679736886650062,-1,6.379,109,5,32,0,1,1,-1,1,1,-1,NaN
1,0.497226749088441,1,6.438,109,5,33,1,-1,1,1,-1,1,1,NaN
1,0.906732429013573,-1,6.019,109,5,34,0,1,-1,1,1,-1,1,NaN
1,0.689939158293782,-1,5.733,109,5,35,0,-1,1,-1,-1,1,-1,NaN
1,0.507006624997302,1,6.227,109,5,36,1,-1,-1,1,-1,-1,1,NaN
1,0.565613106486126,1,5.076,109,5,37,1,1,-1,-1,1,-1,-1,NaN
1,0.746173283272583,1,6.226,109,5,38,1,1,1,-1,1,1,-1,NaN
1,0.700474671953998,-1,5.826,109,5,39,0,1,1,1,1,1,1,NaN
1,0.548320061652703,1,5.777,109,5,40,1,-1,1,1,-1,1,1,NaN
1,0.86500850239463,-1,5.174,109,5,41,0,1,-1,1,1,-1,1,NaN
0,0.999598847996822,-1,5.338,109,5,42,1,-1,1,-1,-1,1,-1,NaN
1,0.802120894926702,1,6.408,109,5,43,1,1,-1,1,-1,-1,1,NaN
1,0.602023898502011,-1,5.075,109,5,44,0,1,1,-1,1,-1,-1,NaN
1,0.546436261938652,-1,6.312,109,5,45,0,-1,1,1,-1,1,-1,NaN
1,0.59773620832857,1,5.984,109,5,46,1,-1,-1,1,-1,-1,1,NaN
1,0.591115563807762,-1,5.195,109,5,47,0,1,-1,-1,1,-1,-1,NaN
1,0.526695951319198,1,6.276,109,5,48,1,-1,1,-1,-1,1,-1,NaN
1,0.750770038772316,-1,5.259,109,5,49,0,1,-1,1,1,-1,1,NaN
1,0.797471150564888,1,6.392,109,5,50,1,-1,1,-1,-1,1,-1,NaN
1,0.751926433629706,1,5.102,109,5,51,1,1,-1,1,1,-1,1,NaN
1,0.703486381587936,-1,5.952,109,5,52,0,1,1,-1,1,1,-1,NaN
1,0.556180540499554,1,5.309,109,5,53,1,-1,1,1,-1,1,1,NaN
1,0.680495904243799,1,5.622,109,5,54,1,1,-1,1,1,-1,1,NaN
0,0.919650709050984,1,5.359,109,5,55,0,1,1,-1,1,1,-1,NaN
1,0.965126325098026,-1,5.603,109,5,56,0,-1,1,1,1,1,1,NaN
1,0.670917869121695,-1,5.256,109,5,57,0,-1,-1,1,-1,1,1,NaN
1,0.884086742486033,-1,5.907,109,5,58,0,-1,-1,-1,-1,-1,1,NaN
1,0.634637670234952,1,6.311,109,5,59,1,-1,-1,-1,-1,-1,-1,NaN
0,0.7994718556929,1,6.206,109,5,60,0,1,-1,-1,1,-1,-1,NaN
1,0.854288591443037,-1,5.357,109,5,61,0,-1,1,-1,1,1,-1,NaN
1,0.599059824060532,-1,5.358,109,5,62,0,-1,-1,1,-1,1,1,NaN
1,0.598037172689146,-1,5.491,109,5,63,0,-1,-1,-1,-1,-1,1,NaN
1,0.63235666651417,-1,6.019,109,5,64,0,-1,-1,-1,-1,-1,-1,NaN
1,0.823797019960693,1,5.27,109,5,65,1,-1,-1,-1,-1,-1,-1,NaN
1,0.568948667547374,1,5.083,109,5,66,1,1,-1,-1,1,-1,-1,NaN
1,0.48822265758281,1,5.621,109,5,67,1,1,1,-1,1,1,-1,NaN
1,0.569298210210036,1,5.112,109,5,68,1,1,1,1,1,1,1,NaN
1,0.475972767748317,1,5.423,109,5,69,1,1,1,1,1,1,1,NaN
1,0.432706178449735,1,5.977,109,5,70,1,1,1,1,1,1,1,NaN
1,0.430741529640727,1,6.044,109,5,71,1,1,1,1,1,1,1,NaN
1,0.798783251171699,-1,6.32,109,5,72,0,1,1,1,1,1,1,NaN
1,0.63989549300095,-1,5.56,109,5,73,0,-1,1,1,-1,1,1,NaN
1,0.630276687305013,-1,5.207,109,5,74,0,-1,-1,1,-1,-1,1,NaN
1,0.698965527850305,-1,5.962,109,5,75,0,-1,-1,-1,-1,-1,-1,NaN
1,0.746879421187259,-1,5.804,109,5,76,0,-1,-1,-1,-1,-1,-1,NaN
1,0.653951551475984,1,5.813,109,5,77,1,-1,-1,-1,-1,-1,-1,NaN
1,0.628259223216446,1,5.493,109,5,78,1,1,-1,-1,1,-1,-1,NaN
1,0.797673961269538,1,5.17,109,5,79,1,1,1,-1,1,1,-1,NaN
1,0.85297517505569,-1,5.261,109,5,80,0,1,1,1,1,1,1,NaN
1,0.929270522257866,1,5.958,109,5,81,1,-1,1,1,-1,1,1,NaN
1,0.784410596857924,1,5.615,109,5,82,1,1,-1,1,1,-1,1,NaN
1,0.926615347725601,1,6.288,109,5,83,1,1,1,-1,1,1,-1,NaN
1,0.655192088643162,-1,6.345,109,5,84,0,1,1,1,1,1,1,NaN
1,0.798939438120215,-1,6.332,109,5,85,0,-1,1,1,-1,1,1,NaN
1,0.929043816973717,1,5.185,109,5,86,1,-1,-1,1,-1,-1,1,NaN
1,0.737592895437047,1,6.172,109,5,87,1,1,-1,-1,1,-1,-1,NaN
1,0.854827365954407,1,6.012,109,5,88,1,1,1,-1,1,1,-1,NaN
1,0.713637086058952,-1,6.412,109,5,89,0,1,1,1,1,1,1,NaN
1,0.681822670005204,1,5.987,109,5,90,1,-1,1,1,-1,1,1,NaN
0,0.805437625122067,1,6.42,109,5,91,0,1,-1,1,1,-1,1,NaN
0,1.47675333734333,1,5.206,109,5,92,0,-1,1,-1,1,1,-1,NaN
1,0.666405018928344,-1,6.412,109,5,93,0,-1,-1,1,1,1,1,NaN
1,0.832339020340441,1,6.397,109,5,94,1,-1,-1,-1,-1,1,1,NaN
1,1.14845039358988,1,5.459,109,5,95,1,1,-1,-1,1,-1,1,NaN
1,1.30013090205284,1,5.149,109,5,96,1,1,1,-1,1,1,-1,NaN
1,1.07474758223179,1,6.107,109,5,97,1,1,1,1,1,1,1,NaN
1,1.03710161783783,-1,5.044,109,5,98,0,1,1,1,1,1,1,NaN
1,0.778058995691026,-1,5.727,109,5,99,0,-1,1,1,-1,1,1,NaN
1,0.981948016031311,1,5.19,109,5,100,1,-1,-1,1,-1,-1,1,NaN
1,0.564321336898502,-1,6.291,110,1,2,0,1,1,-1,1,1,-1,NaN
1,0.986816386293867,1,5.123,110,1,3,1,-1,1,1,-1,1,1,NaN
1,0.548607706389703,1,6.474,110,1,4,1,1,-1,1,1,-1,1,NaN
1,0.636509966263475,1,6.419,110,1,5,1,1,1,-1,1,1,-1,NaN
1,0.490864238220183,1,5.733,110,1,6,1,1,1,1,1,1,1,NaN
1,0.540704130407448,-1,5.743,110,1,7,0,1,1,1,1,1,1,NaN
1,0.999471442814865,-1,6.224,110,1,8,0,-1,1,1,-1,1,1,NaN
0,0.668856641996626,-1,5.844,110,1,9,1,-1,-1,1,-1,-1,1,NaN
1,0.764563223189271,1,5.457,110,1,10,1,1,-1,-1,-1,-1,-1,NaN
1,0.549245897705987,1,6.342,110,1,11,1,1,1,-1,1,-1,-1,NaN
1,0.668100887539367,-1,5.45,110,1,12,0,1,1,1,1,1,-1,NaN
0,0.840677266575312,-1,5.379,110,1,13,1,-1,1,1,-1,1,1,NaN
1,0.510059612555779,1,5.279,110,1,14,1,1,-1,1,-1,-1,1,NaN
1,0.526463456270449,1,6.341,110,1,15,1,1,1,-1,1,-1,-1,NaN
1,0.752767897888589,-1,5.946,110,1,16,0,1,1,1,1,1,-1,NaN
0,0.445058673039057,-1,5.39,110,1,17,1,-1,1,1,-1,1,1,NaN
0,0.934115445142652,-1,6.463,110,1,18,1,1,-1,1,-1,-1,1,NaN
1,0.647496879392747,1,5.379,110,1,19,1,1,1,-1,-1,-1,-1,NaN
1,0.794558429170138,-1,5.181,110,1,20,0,1,1,1,1,-1,-1,NaN
1,0.691373791933529,-1,5.16,110,1,21,0,-1,1,1,-1,1,-1,NaN
1,0.494899715268275,-1,5.154,110,1,22,0,-1,-1,1,-1,-1,1,NaN
1,0.467447962746064,-1,5.716,110,1,23,0,-1,-1,-1,-1,-1,-1,NaN
1,0.741940009872451,1,5.491,110,1,24,1,-1,-1,-1,-1,-1,-1,NaN
0,0.649023091055369,-1,5.088,110,1,25,1,1,-1,-1,1,-1,-1,NaN
0,0.868037711750731,-1,6.152,110,1,26,1,1,1,-1,-1,1,-1,NaN
0,0.958457199691111,1,6.257,110,1,27,0,1,1,1,-1,-1,1,NaN
1,0.753076286850046,-1,5.694,110,1,28,0,-1,1,1,1,-1,-1,NaN
1,1.03165987146213,1,5.725,110,1,29,1,-1,-1,1,-1,1,-1,NaN
1,0.532213261109973,-1,6.445,110,1,30,0,1,-1,-1,1,-1,1,NaN
1,0.598542116756562,1,5.218,110,1,31,1,-1,1,-1,-1,1,-1,NaN
1,0.754799606409961,1,6.442,110,1,32,1,1,-1,1,1,-1,1,NaN
1,0.601510751482692,-1,5.056,110,1,33,0,1,1,-1,1,1,-1,NaN
1,0.515310935528305,1,5.409,110,1,34,1,-1,1,1,-1,1,1,NaN
1,0.513519680158879,1,5.045,110,1,35,1,1,-1,1,1,-1,1,NaN
1,0.492782361017362,1,5.503,110,1,36,1,1,1,-1,1,1,-1,NaN
1,0.53669310367377,1,6.127,110,1,37,1,1,1,1,1,1,1,NaN
1,0.464817397074512,1,5.63,110,1,38,1,1,1,1,1,1,1,NaN
1,0.426468523579388,-1,5.762,110,1,39,0,1,1,1,1,1,1,NaN
1,0.662514491896218,1,5.092,110,1,40,1,-1,1,1,-1,1,1,NaN
1,0.49595985511678,1,5.429,110,1,41,1,1,-1,1,1,-1,1,NaN
1,0.493605284045316,-1,6.454,110,1,42,0,1,1,-1,1,1,-1,NaN
1,0.438968107433084,-1,5.904,110,1,43,0,-1,1,1,-1,1,1,NaN
1,0.453549530895543,1,5.004,110,1,44,1,-1,-1,1,-1,-1,1,NaN
1,0.583981531340214,1,5.478,110,1,45,1,1,-1,-1,1,-1,-1,NaN
1,0.461335513661652,-1,6.143,110,1,46,0,1,1,-1,1,1,-1,NaN
1,0.41537457747927,1,5.044,110,1,47,1,-1,1,1,-1,1,1,NaN
1,0.610910671391593,1,5.441,110,1,48,1,1,-1,1,1,-1,1,NaN
0,0.397928533648155,-1,6.236,110,1,49,1,1,1,-1,1,1,-1,NaN
1,0.774103438683142,1,5.404,110,1,50,1,1,1,1,-1,1,1,NaN
1,0.652433061241936,-1,5.561,110,1,51,0,1,1,1,1,-1,1,NaN
0,0.712956173218572,1,5.405,110,1,52,0,-1,1,1,-1,1,-1,NaN
1,1.27045280285802,-1,5.696,110,1,53,0,-1,-1,1,1,-1,1,NaN
1,0.594680382605929,-1,6.294,110,1,54,0,-1,-1,-1,-1,1,-1,NaN
1,0.816473774607402,-1,5.499,110,1,55,0,-1,-1,-1,-1,-1,1,NaN
0,0.508092392334675,-1,5.077,110,1,57,1,-1,-1,-1,1,-1,-1,NaN
1,1.02952652058502,1,5.902,110,1,58,1,1,-1,-1,-1,1,-1,NaN
1,0.472329114879813,-1,5.803,110,1,59,0,1,1,-1,1,-1,1,NaN
1,0.638252097730401,1,5.269,110,1,60,1,-1,1,1,-1,1,-1,NaN
0,0.553221905381179,-1,5.562,110,1,61,1,1,-1,1,1,-1,1,NaN
1,0.71193699550804,1,5.832,110,1,62,1,1,1,-1,-1,1,-1,NaN
1,0.559035890252289,1,6.099,110,1,63,1,1,1,1,1,-1,1,NaN
1,0.643395631607746,1,5.313,110,1,64,1,1,1,1,1,1,-1,NaN
1,0.626453227504498,-1,5.398,110,1,65,0,1,1,1,1,1,1,NaN
0,0.457522568665809,1,5.982,110,1,66,0,-1,1,1,-1,1,1,NaN
0,0.358870586004286,-1,6.423,110,1,67,1,-1,-1,1,1,-1,1,NaN
0,1.20613602395542,-1,6.436,110,1,68,1,1,-1,-1,-1,1,-1,NaN
1,0.90881211074111,1,5.87,110,1,69,1,1,1,-1,-1,-1,1,NaN
1,0.688343608737341,-1,5.679,110,1,70,0,1,1,1,1,-1,-1,NaN
0,0.594858806415232,1,6.386,110,1,71,0,-1,1,1,-1,1,-1,NaN
0,0.590646033042958,-1,5.485,110,1,72,1,-1,-1,1,1,-1,1,NaN
0,0.906063504651684,-1,6.451,110,1,73,1,1,-1,-1,-1,1,-1,NaN
1,1.26180404704792,1,6.006,110,1,74,1,1,1,-1,-1,-1,1,NaN
1,0.870230434256882,1,5.485,110,1,75,1,1,1,1,1,-1,-1,NaN
0,0.864598114102137,-1,5.607,110,1,77,1,1,1,1,-1,1,1,NaN
1,0.633435696726337,1,5.195,110,1,78,1,1,1,1,-1,-1,1,NaN
1,0.47664627821996,-1,5.658,110,1,79,0,1,1,1,1,-1,-1,NaN
1,0.699662902824912,1,6.174,110,1,80,1,-1,1,1,-1,1,-1,NaN
0,0.551589578034964,-1,5.71,110,1,81,1,1,-1,1,1,-1,1,NaN
1,0.630992434832024,1,6.066,110,1,82,1,1,1,-1,-1,1,-1,NaN
1,0.6260277265269,-1,6.206,110,1,83,0,1,1,1,1,-1,1,NaN
1,0.603331841243289,1,5.066,110,1,84,1,-1,1,1,-1,1,-1,NaN
1,0.572150725395659,1,5.322,110,1,85,1,1,-1,1,1,-1,1,NaN
1,0.416579404188269,1,6.442,110,1,86,1,1,1,-1,1,1,-1,NaN
0,0.5346174709548,-1,5.543,110,1,87,1,1,1,1,1,1,1,NaN
1,0.848058729920012,1,5.464,110,1,88,1,1,1,1,-1,1,1,NaN
1,0.860059019882101,-1,6.366,110,1,89,0,1,1,1,1,-1,1,NaN
1,0.694288066112676,-1,5.198,110,1,90,0,-1,1,1,-1,1,-1,NaN
1,0.925365232002605,-1,5.807,110,1,91,0,-1,-1,1,-1,-1,1,NaN
1,0.650977101163335,1,5.802,110,1,92,1,-1,-1,-1,-1,-1,-1,NaN
1,0.572319205497479,1,6.428,110,1,93,1,1,-1,-1,1,-1,-1,NaN
1,0.63227597138939,1,5.821,110,1,94,1,1,1,-1,1,1,-1,NaN
0,0.570059246751953,1,6.341,110,1,95,0,1,1,1,1,1,1,NaN
1,0.618876994919901,-1,6.241,110,1,96,0,-1,1,1,1,1,1,NaN
1,0.70225732227982,-1,6.352,110,1,97,0,-1,-1,1,-1,1,1,NaN
1,0.842014998595005,-1,5.006,110,1,98,0,-1,-1,-1,-1,-1,1,NaN
1,0.565233537538006,-1,5.064,110,1,99,0,-1,-1,-1,-1,-1,-1,NaN
0,0.574157933913739,-1,5.883,110,1,100,1,-1,-1,-1,-1,-1,-1,NaN
0,0.462826056710583,-1,6.137,110,2,2,1,1,1,-1,1,-1,-1,NaN
1,0.538489858844514,1,5.287,110,2,3,1,1,1,1,-1,1,-1,NaN
1,0.485003591999885,1,5.617,110,2,4,1,1,1,1,1,-1,1,NaN
1,0.539799636158023,-1,5.336,110,2,5,0,1,1,1,1,1,-1,NaN
1,0.620000938863086,-1,6.064,110,2,6,0,-1,1,1,-1,1,1,NaN
1,0.444156404338173,1,6.149,110,2,7,1,-1,-1,1,-1,-1,1,NaN
1,0.459644882021166,-1,6.233,110,2,8,0,1,-1,-1,1,-1,-1,NaN
0,0.542772353564033,-1,5.061,110,2,9,1,-1,1,-1,-1,1,-1,NaN
0,0.59392059417678,-1,6.385,110,2,10,1,1,-1,1,-1,-1,1,NaN
1,0.491217671999038,-1,6.285,110,2,11,0,1,1,-1,-1,-1,-1,NaN
1,0.524338996476217,1,5.28,110,2,12,1,-1,1,1,-1,-1,-1,NaN
1,0.491993580296366,-1,5.379,110,2,13,0,1,-1,1,1,-1,-1,NaN
1,0.694167378768725,-1,5.728,110,2,14,0,-1,1,-1,-1,1,-1,NaN
1,1.09792215644211,-1,6.387,110,2,15,0,-1,-1,1,-1,-1,1,NaN
1,0.539486506462708,1,6.083,110,2,16,1,-1,-1,-1,-1,-1,-1,NaN
1,0.525511797241961,-1,5.019,110,2,17,0,1,-1,-1,1,-1,-1,NaN
1,0.635890850010583,1,5.346,110,2,18,1,-1,1,-1,-1,1,-1,NaN
1,0.593332489163004,-1,5.505,110,2,19,0,1,-1,1,1,-1,1,NaN
1,0.852580906956973,1,5.609,110,2,20,1,-1,1,-1,-1,1,-1,NaN
1,0.899261481454232,-1,5.645,110,2,21,0,1,-1,1,1,-1,1,NaN
1,0.729247205641514,1,5.243,110,2,22,1,-1,1,-1,-1,1,-1,NaN
0,0.629416193094585,-1,6.347,110,2,23,1,1,-1,1,1,-1,1,NaN
0,0.62961482337505,1,5.537,110,2,24,0,1,1,-1,-1,1,-1,NaN
1,0.820587323063592,-1,6.453,110,2,25,0,-1,1,1,1,-1,1,NaN
1,0.640773818086018,1,5.941,110,2,26,1,-1,-1,1,-1,1,-1,NaN
1,0.717734277317504,-1,5.16,110,2,27,0,1,-1,-1,1,-1,1,NaN
1,0.578556946668868,1,5.154,110,2,28,1,-1,1,-1,-1,1,-1,NaN
0,0.534345675739132,1,5.629,110,2,29,0,1,-1,1,1,-1,1,NaN
1,0.54436245595025,1,6.221,110,2,30,1,-1,1,-1,1,1,-1,NaN
1,0.655337662715283,1,5.741,110,2,31,1,1,-1,1,1,1,1,NaN
1,0.549554816901946,-1,5.157,110,2,32,0,1,1,-1,1,1,1,NaN
1,0.548096912736582,-1,6.157,110,2,33,0,-1,1,1,-1,1,1,NaN
1,0.652410715850237,-1,5.397,110,2,34,0,-1,-1,1,-1,-1,1,NaN
1,0.559054934913547,1,5.668,110,2,35,1,-1,-1,-1,-1,-1,-1,NaN
0,0.522278968754108,1,5.148,110,2,36,0,1,-1,-1,1,-1,-1,NaN
1,0.607196740458676,1,5.651,110,2,37,1,-1,1,-1,1,1,-1,NaN
1,0.47236430621615,-1,6.455,110,2,38,0,1,-1,1,1,1,1,NaN
1,0.605298283109732,1,6.191,110,2,39,1,-1,1,-1,-1,1,1,NaN
1,0.635028517302999,1,5.102,110,2,40,1,1,-1,1,1,-1,1,NaN
1,0.820567334309999,-1,5.264,110,2,41,0,1,1,-1,1,1,-1,NaN
1,0.625129582022964,-1,5.667,110,2,42,0,-1,1,1,-1,1,1,NaN
1,0.623708794320009,1,6.351,110,2,43,1,-1,-1,1,-1,-1,1,NaN
1,0.692594603500766,1,5.646,110,2,44,1,1,-1,-1,1,-1,-1,NaN
0,0.611055606370428,-1,6.026,110,2,45,1,1,1,-1,1,1,-1,NaN
1,0.59929805918182,1,6.467,110,2,46,1,1,1,1,-1,1,1,NaN
1,0.476135097514998,-1,5.869,110,2,47,0,1,1,1,1,-1,1,NaN
1,0.505341801295799,-1,5.506,110,2,48,0,-1,1,1,-1,1,-1,NaN
0,0.650839098142569,-1,6.011,110,2,49,1,-1,-1,1,-1,-1,1,NaN
1,0.647828121424027,-1,5.921,110,2,50,0,1,-1,-1,-1,-1,-1,NaN
1,1.07242069911263,-1,5.919,110,2,51,0,-1,1,-1,-1,-1,-1,NaN
1,0.572307792038373,-1,5.159,110,2,52,0,-1,-1,1,-1,-1,-1,NaN
1,0.847256968244437,1,6.082,110,2,53,1,-1,-1,-1,-1,-1,-1,NaN
1,0.911351173251205,1,5.195,110,2,54,1,1,-1,-1,1,-1,-1,NaN
1,0.560285261619356,-1,5.465,110,2,55,0,1,1,-1,1,1,-1,NaN
0,0.541229750704588,-1,5.9,110,2,56,1,-1,1,1,-1,1,1,NaN
1,0.842425138770523,1,5.349,110,2,57,1,1,-1,1,-1,-1,1,NaN
1,0.674043371406697,1,5.578,110,2,58,1,1,1,-1,1,-1,-1,NaN
0,0.511846018005599,-1,5.231,110,2,59,1,1,1,1,1,1,-1,NaN
1,0.657975322162201,1,5.901,110,2,60,1,1,1,1,-1,1,1,NaN
1,0.757727222443464,1,6.413,110,2,61,1,1,1,1,1,-1,1,NaN
0,0.479980264267397,1,5.41,110,2,62,0,1,1,1,1,1,-1,NaN
1,0.59623526717678,-1,6.211,110,2,63,0,-1,1,1,1,1,1,NaN
0,0.681961372269143,-1,5.584,110,2,64,1,-1,-1,1,-1,1,1,NaN
1,0.673223019463876,-1,6.396,110,2,65,0,1,-1,-1,-1,-1,1,NaN
0,1.24983714424889,1,5.445,110,2,66,0,-1,1,-1,-1,-1,-1,NaN
1,0.628202479225365,-1,6.105,110,2,67,0,-1,-1,1,1,-1,-1,NaN
0,0.754519690946836,-1,6.177,110,2,68,1,-1,-1,-1,-1,1,-1,NaN
1,0.732737427346365,-1,5.531,110,2,69,0,1,-1,-1,-1,-1,1,NaN
1,0.860038828122015,1,6.274,110,2,70,1,-1,1,-1,-1,-1,-1,NaN
1,0.585505333407127,-1,5.091,110,2,71,0,1,-1,1,1,-1,-1,NaN
1,1.03228569803377,1,6.451,110,2,72,1,-1,1,-1,-1,1,-1,NaN
1,0.692954488038595,-1,6.436,110,2,73,0,1,-1,1,1,-1,1,NaN
1,0.724657063045925,-1,5.748,110,2,74,0,-1,1,-1,-1,1,-1,NaN
1,0.559423598079775,1,6.364,110,2,75,1,-1,-1,1,-1,-1,1,NaN
0,0.62937665951813,-1,5.633,110,2,76,1,1,-1,-1,1,-1,-1,NaN
1,0.691034688887157,1,5.954,110,2,77,1,1,1,-1,-1,1,-1,NaN
1,0.520726937712425,-1,5.276,110,2,78,0,1,1,1,1,-1,1,NaN
1,0.73022600375225,1,6.486,110,2,79,1,-1,1,1,-1,1,-1,NaN
1,0.60776787598661,-1,5.529,110,2,80,0,1,-1,1,1,-1,1,NaN
1,0.627821368935656,1,5.446,110,2,81,1,-1,1,-1,-1,1,-1,NaN
1,0.894871558864907,1,5.118,110,2,82,1,1,-1,1,1,-1,1,NaN
1,0.553625267569259,1,5.705,110,2,83,1,1,1,-1,1,1,-1,NaN
1,0.535498405044564,1,5.934,110,2,84,1,1,1,1,1,1,1,NaN
0,0.54061266484041,1,5.036,110,2,85,0,1,1,1,1,1,1,NaN
1,0.58542622114328,1,5.854,110,2,86,1,-1,1,1,1,1,1,NaN
1,0.838224888036166,1,6.28,110,2,87,1,1,-1,1,1,1,1,NaN
1,0.646455344849528,1,5.331,110,2,88,1,1,1,-1,1,1,1,NaN
1,0.507925212976261,-1,6.477,110,2,89,0,1,1,1,1,1,1,NaN
0,0.644158852508554,-1,5.413,110,2,91,1,-1,-1,1,1,-1,1,NaN
1,0.660196408980482,-1,5.353,110,2,92,0,1,-1,-1,-1,1,-1,NaN
1,0.603005715229301,1,6.242,110,2,93,1,-1,1,-1,-1,-1,1,NaN
1,0.868501626338002,1,6.435,110,2,94,1,1,-1,1,1,-1,-1,NaN
0,0.675468493504013,1,6.362,110,2,95,0,1,1,-1,1,1,-1,NaN
0,0.648080138736987,-1,5.879,110,2,96,1,-1,1,1,1,1,1,NaN
1,1.18129135932395,-1,5.078,110,2,97,0,1,-1,1,-1,1,1,NaN
1,0.610369133579297,1,5.964,110,2,98,1,-1,1,-1,-1,-1,1,NaN
1,0.778470989402194,-1,5.899,110,2,99,0,1,-1,1,1,-1,-1,NaN
1,0.793140957233845,1,5.456,110,2,100,1,-1,1,-1,-1,1,-1,NaN
1,1.1333694621153,-1,6.293,110,3,2,0,1,1,-1,-1,1,-1,NaN
1,0.783999671136371,-1,5.314,110,3,3,0,-1,1,1,-1,-1,1,NaN
1,0.70899003013983,-1,6.239,110,3,4,0,-1,-1,1,-1,-1,-1,NaN
1,0.570323417957297,1,5.843,110,3,5,1,-1,-1,-1,-1,-1,-1,NaN
1,0.581459984243338,1,6.139,110,3,6,1,1,-1,-1,1,-1,-1,NaN
1,0.804180580708817,1,5.443,110,3,7,1,1,1,-1,1,1,-1,NaN
0,0.580068222502632,-1,5.299,110,3,8,1,1,1,1,1,1,1,NaN
1,0.573304785519213,-1,5.329,110,3,9,0,1,1,1,-1,1,1,NaN
1,0.476461576583461,1,5.004,110,3,10,1,-1,1,1,-1,-1,1,NaN
1,0.46686414668784,1,6.313,110,3,11,1,1,-1,1,1,-1,-1,NaN
1,0.529855460572435,1,5.646,110,3,12,1,1,1,-1,1,1,-1,NaN
1,0.527613471307632,1,5.518,110,3,13,1,1,1,1,1,1,1,NaN
1,0.555222065563612,-1,6.126,110,3,14,0,1,1,1,1,1,1,NaN
1,0.532566465403761,-1,5.044,110,3,15,0,-1,1,1,-1,1,1,NaN
1,0.543955409575574,-1,5.512,110,3,16,0,-1,-1,1,-1,-1,1,NaN
1,0.544463733483099,-1,6.244,110,3,17,0,-1,-1,-1,-1,-1,-1,NaN
1,0.632246640754602,1,5.046,110,3,18,1,-1,-1,-1,-1,-1,-1,NaN
1,0.541978952736827,1,5.666,110,3,19,1,1,-1,-1,1,-1,-1,NaN
0,0.490846877104559,-1,5.643,110,3,20,1,1,1,-1,1,1,-1,NaN
0,0.647731622218998,-1,5.616,110,3,21,1,1,1,1,-1,1,1,NaN
1,1.09289451229506,-1,6.456,110,3,22,0,1,1,1,-1,-1,1,NaN
1,0.93881082797725,1,5.644,110,3,23,1,-1,1,1,-1,-1,-1,NaN
1,0.579745675739105,1,5.222,110,3,24,1,1,-1,1,1,-1,-1,NaN
1,0.51655246484188,-1,6.335,110,3,25,0,1,1,-1,1,1,-1,NaN
1,0.491044631614386,1,5.645,110,3,26,1,-1,1,1,-1,1,1,NaN
1,0.612185441089423,1,5.059,110,3,27,1,1,-1,1,1,-1,1,NaN
1,0.411878987388263,1,5.037,110,3,28,1,1,1,-1,1,1,-1,NaN
0,0.400388649305569,-1,6.101,110,3,29,1,1,1,1,1,1,1,NaN
1,0.490833505175033,-1,6.42,110,3,30,0,1,1,1,-1,1,1,NaN
1,0.62364686598994,1,6.018,110,3,31,1,-1,1,1,-1,-1,1,NaN
1,0.590410087217606,1,5.506,110,3,32,1,1,-1,1,1,-1,-1,NaN
0,0.567182957286605,-1,5.94,110,3,33,1,1,1,-1,1,1,-1,NaN
1,0.568168300304933,-1,5.61,110,3,34,0,1,1,1,-1,1,1,NaN
1,0.580259943053534,-1,6.055,110,3,35,0,-1,1,1,-1,-1,1,NaN
1,0.821265280711486,1,5.654,110,3,36,1,-1,-1,1,-1,-1,-1,NaN
1,0.653415453314665,1,6.408,110,3,37,1,1,-1,-1,1,-1,-1,NaN
0,0.752648590398167,1,5.053,110,3,38,0,1,1,-1,1,1,-1,NaN
1,0.60191190675414,1,5.649,110,3,39,1,-1,1,1,1,1,1,NaN
1,0.725335501892914,1,5.312,110,3,40,1,1,-1,1,1,1,1,NaN
0,0.526913731521745,-1,6.361,110,3,41,1,1,1,-1,1,1,1,NaN
1,0.782897828716159,1,6.367,110,3,42,1,1,1,1,-1,1,1,NaN
1,0.810403449797377,1,6.348,110,3,43,1,1,1,1,1,-1,1,NaN
1,0.528235519872396,1,5.867,110,3,44,1,1,1,1,1,1,-1,NaN
1,0.590906658995664,-1,5.663,110,3,45,0,1,1,1,1,1,1,NaN
1,0.694600545272806,1,5.199,110,3,46,1,-1,1,1,-1,1,1,NaN
0,0.60647426398009,-1,6,110,3,47,1,1,-1,1,1,-1,1,NaN
0,0.524896455400267,1,6.476,110,3,48,0,1,1,-1,-1,1,-1,NaN
1,0.534091278579581,1,5.515,110,3,49,1,-1,1,1,1,-1,1,NaN
1,0.541361426535332,1,5.113,110,3,50,1,1,-1,1,1,1,-1,NaN
1,0.508473686671095,-1,5.313,110,3,51,0,1,1,-1,1,1,1,NaN
1,0.676501798615391,-1,5.744,110,3,52,0,-1,1,1,-1,1,1,NaN
0,0.663807058469501,1,5.617,110,3,53,0,-1,-1,1,-1,-1,1,NaN
1,0.740596071617801,1,6.42,110,3,54,1,-1,-1,-1,1,-1,-1,NaN
1,0.590069969140131,1,5.905,110,3,55,1,1,-1,-1,1,1,-1,NaN
1,0.586504522363612,-1,5.853,110,3,56,0,1,1,-1,1,1,1,NaN
1,0.655128810534734,1,5.612,110,3,57,1,-1,1,1,-1,1,1,NaN
0,0.896172520610889,1,5.512,110,3,58,0,1,-1,1,1,-1,1,NaN
1,0.544442631953643,1,5.882,110,3,59,1,-1,1,-1,1,1,-1,NaN
1,0.760028211322606,1,5.391,110,3,60,1,1,-1,1,1,1,1,NaN
1,0.531603009460923,-1,6.111,110,3,61,0,1,1,-1,1,1,1,NaN
0,0.531013591934425,-1,5.449,110,3,62,1,-1,1,1,-1,1,1,NaN
1,0.741271879229316,1,5.733,110,3,63,1,1,-1,1,-1,-1,1,NaN
0,1.24362860197107,-1,5.752,110,3,64,1,1,1,-1,1,-1,-1,NaN
1,0.923476567331818,-1,5.499,110,3,65,0,1,1,1,-1,1,-1,NaN
1,0.724760810324369,-1,5.77,110,3,66,0,-1,1,1,-1,-1,1,NaN
0,0.654533356107095,1,6.121,110,3,67,0,-1,-1,1,-1,-1,-1,NaN
1,1.1735097259907,-1,5.964,110,3,68,0,-1,-1,-1,1,-1,-1,NaN
1,0.728297753202241,1,5.371,110,3,69,1,-1,-1,-1,-1,1,-1,NaN
0,0.651896523396317,1,5.095,110,3,70,0,1,-1,-1,1,-1,1,NaN
1,0.693705456977113,1,5.147,110,3,71,1,-1,1,-1,1,1,-1,NaN
1,0.608304958777808,-1,5.437,110,3,72,0,1,-1,1,1,1,1,NaN
0,0.83692127249833,-1,5.819,110,3,73,1,-1,1,-1,-1,1,1,NaN
1,0.722638203737915,1,5.37,110,3,74,1,1,-1,1,-1,-1,1,NaN
1,0.770138009886068,-1,5.86,110,3,75,0,1,1,-1,1,-1,-1,NaN
1,0.664857002569988,-1,6.067,110,3,76,0,-1,1,1,-1,1,-1,NaN
1,0.993480497021665,-1,5.073,110,3,77,0,-1,-1,1,-1,-1,1,NaN
1,0.581686106662346,-1,5.89,110,3,78,0,-1,-1,-1,-1,-1,-1,NaN
1,0.818953036593484,-1,5.685,110,3,79,0,-1,-1,-1,-1,-1,-1,NaN
1,0.620345948049362,-1,5.966,110,3,81,0,-1,-1,-1,1,-1,-1,NaN
1,0.608928526456111,1,5.053,110,3,82,1,-1,-1,-1,-1,1,-1,NaN
1,0.585154708043774,1,6.055,110,3,83,1,1,-1,-1,1,-1,1,NaN
1,0.653938743454091,-1,5.611,110,3,84,0,1,1,-1,1,1,-1,NaN
1,0.713112018227548,-1,5.466,110,3,85,0,-1,1,1,-1,1,1,NaN
1,0.807949198762799,-1,5.638,110,3,86,0,-1,-1,1,-1,-1,1,NaN
0,0.870161284332426,1,6.384,110,3,87,0,-1,-1,-1,-1,-1,-1,NaN
1,0.745012403645887,-1,5.999,110,3,89,0,1,-1,-1,-1,1,-1,NaN
1,0.693145907840517,-1,5.669,110,3,90,0,-1,1,-1,-1,-1,1,NaN
1,0.554748636164732,-1,5.951,110,3,91,0,-1,-1,1,-1,-1,-1,NaN
1,0.590652051637335,-1,6.407,110,3,92,0,-1,-1,-1,-1,-1,-1,NaN
1,0.753659520041765,-1,5.575,110,3,93,0,-1,-1,-1,-1,-1,-1,NaN
1,1.08375272636385,1,5.847,110,3,94,1,-1,-1,-1,-1,-1,-1,NaN
1,0.577526667691018,-1,6.29,110,3,95,0,1,-1,-1,1,-1,-1,NaN
1,0.602966475210451,1,5.248,110,3,96,1,-1,1,-1,-1,1,-1,NaN
1,0.52401093095159,1,5.917,110,3,97,1,1,-1,1,1,-1,1,NaN
1,0.540994455413966,1,5.278,110,3,98,1,1,1,-1,1,1,-1,NaN
0,0.477350672110333,-1,5.869,110,3,99,1,1,1,1,1,1,1,NaN
0,0.488525854685577,1,6.453,110,3,100,0,1,1,1,-1,1,1,NaN
0,0.453537997135754,-1,5.986,110,4,2,1,-1,-1,1,-1,1,-1,NaN
1,0.572358389615147,-1,6.177,110,4,3,0,1,-1,-1,-1,-1,1,NaN
0,0.448279745801301,1,6.298,110,4,4,0,-1,1,-1,-1,-1,-1,NaN
1,0.511344596635354,-1,6.493,110,4,5,0,-1,-1,1,1,-1,-1,NaN
1,0.533925982831533,-1,5.7,110,4,6,0,-1,-1,-1,-1,1,-1,NaN
1,0.50683932533957,-1,5.691,110,4,7,0,-1,-1,-1,-1,-1,1,NaN
0,0.616378699387496,1,6.411,110,4,8,0,-1,-1,-1,-1,-1,-1,NaN
1,0.632551522383437,-1,6.141,110,4,9,0,-1,-1,-1,1,-1,-1,NaN
1,0.450843270394216,1,5.328,110,4,10,1,-1,-1,-1,-1,1,-1,NaN
0,0.494183336493734,-1,6.021,110,4,11,1,1,-1,-1,1,-1,1,NaN
0,0.704612216657551,1,5.396,110,4,12,0,1,1,-1,-1,1,-1,NaN
1,0.560070007387367,-1,5.035,110,4,13,0,-1,1,1,1,-1,1,NaN
1,0.486031416270635,-1,5.158,110,4,14,0,-1,-1,1,-1,1,-1,NaN
1,0.496936134448333,-1,5.921,110,4,15,0,-1,-1,-1,-1,-1,1,NaN
1,0.620588017731279,1,5.246,110,4,16,1,-1,-1,-1,-1,-1,-1,NaN
1,0.65987371184201,1,6.461,110,4,17,1,1,-1,-1,1,-1,-1,NaN
1,0.465463005471975,-1,5.184,110,4,18,0,1,1,-1,1,1,-1,NaN
0,0.772064595197662,-1,5.825,110,4,19,1,-1,1,1,-1,1,1,NaN
1,0.549307874744045,-1,5.096,110,4,20,0,1,-1,1,-1,-1,1,NaN
1,0.642510201306322,1,6.475,110,4,21,1,-1,1,-1,-1,-1,-1,NaN
1,0.535075486593087,-1,6.162,110,4,22,0,1,-1,1,1,-1,-1,NaN
1,0.59715013729874,1,5.763,110,4,23,1,-1,1,-1,-1,1,-1,NaN
1,0.510953851233353,1,5.67,110,4,24,1,1,-1,1,1,-1,1,NaN
1,0.620699870220051,1,6.118,110,4,25,1,1,1,-1,1,1,-1,NaN
1,0.423685023308281,-1,5.432,110,4,26,0,1,1,1,1,1,1,NaN
1,0.507254928048496,1,6.028,110,4,27,1,-1,1,1,-1,1,1,NaN
0,0.563746303064363,-1,5.628,110,4,28,1,1,-1,1,1,-1,1,NaN
1,0.545538771566498,1,5.783,110,4,29,1,1,1,-1,-1,1,-1,NaN
1,0.775370858968017,-1,5.402,110,4,30,0,1,1,1,1,-1,1,NaN
0,0.73809265908676,-1,5.377,110,4,31,1,-1,1,1,-1,1,-1,NaN
1,0.696152459610857,-1,5.339,110,4,32,0,1,-1,1,-1,-1,1,NaN
1,0.683977644801416,1,5.008,110,4,33,1,-1,1,-1,-1,-1,-1,NaN
0,0.496416393485561,1,5.851,110,4,34,0,1,-1,1,1,-1,-1,NaN
1,0.489795323992439,1,6.058,110,4,35,1,-1,1,-1,1,1,-1,NaN
1,0.768133628090254,1,5.378,110,4,36,1,1,-1,1,1,1,1,NaN
1,0.393918980915259,1,5.947,110,4,37,1,1,1,-1,1,1,1,NaN
1,0.494154122561667,1,6.23,110,4,38,1,1,1,1,1,1,1,NaN
0,0.395306701165282,-1,5.54,110,4,39,1,1,1,1,1,1,1,NaN
1,1.13546006106571,1,5.953,110,4,40,1,1,1,1,-1,1,1,NaN
1,0.789386944185026,-1,5.244,110,4,41,0,1,1,1,1,-1,1,NaN
1,0.645192612666506,-1,6.5,110,4,42,0,-1,1,1,-1,1,-1,NaN
1,0.593537886315971,-1,5.188,110,4,43,0,-1,-1,1,-1,-1,1,NaN
0,0.567272129309458,1,5.553,110,4,44,0,-1,-1,-1,-1,-1,-1,NaN
1,0.603834740210914,-1,6.057,110,4,45,0,-1,-1,-1,1,-1,-1,NaN
1,0.785699017332263,-1,5.054,110,4,46,0,-1,-1,-1,-1,1,-1,NaN
1,0.6846232871967,-1,5.485,110,4,47,0,-1,-1,-1,-1,-1,1,NaN
1,0.504308394518375,1,5.767,110,4,48,1,-1,-1,-1,-1,-1,-1,NaN
1,0.406469710887905,1,5.639,110,4,49,1,1,-1,-1,1,-1,-1,NaN
1,0.350507670756997,1,5.742,110,4,50,1,1,1,-1,1,1,-1,NaN
1,0.448300974821905,1,6.118,110,4,51,1,1,1,1,1,1,1,NaN
1,0.440371068185414,-1,6.016,110,4,52,0,1,1,1,1,1,1,NaN
0,0.793409203601186,-1,6.211,110,4,53,1,-1,1,1,-1,1,1,NaN
1,0.514580770965949,1,5.098,110,4,54,1,1,-1,1,-1,-1,1,NaN
1,0.573618663166599,1,6.13,110,4,55,1,1,1,-1,1,-1,-1,NaN
1,0.461763789056931,-1,5.742,110,4,56,0,1,1,1,1,1,-1,NaN
1,0.782879753646739,1,5.345,110,4,57,1,-1,1,1,-1,1,1,NaN
0,0.661236409699086,-1,5.208,110,4,58,1,1,-1,1,1,-1,1,NaN
1,0.580732939960399,1,5.79,110,4,59,1,1,1,-1,-1,1,-1,NaN
1,1.00256603912385,-1,5.676,110,4,60,0,1,1,1,1,-1,1,NaN
1,0.715086771907409,-1,6.5,110,4,61,0,-1,1,1,-1,1,-1,NaN
0,0.376260769135115,-1,5.052,110,4,62,1,-1,-1,1,-1,-1,1,NaN
0,0.887331860203631,-1,6.129,110,4,63,1,1,-1,-1,-1,-1,-1,NaN
1,0.730500746643884,1,6.278,110,4,64,1,1,1,-1,-1,-1,-1,NaN
1,0.899393973232691,1,5.154,110,4,65,1,1,1,1,1,-1,-1,NaN
1,0.818797827081653,-1,5.228,110,4,66,0,1,1,1,1,1,-1,NaN
1,0.878665333995741,1,5.259,110,4,67,1,-1,1,1,-1,1,1,NaN
1,0.663674469274156,1,5.38,110,4,68,1,1,-1,1,1,-1,1,NaN
1,0.709764788069151,-1,5.569,110,4,69,0,1,1,-1,1,1,-1,NaN
1,0.554369326778215,1,5.389,110,4,70,1,-1,1,1,-1,1,1,NaN
1,0.734418852443014,1,5.628,110,4,71,1,1,-1,1,1,-1,1,NaN
1,0.629106345496439,-1,5.382,110,4,72,0,1,1,-1,1,1,-1,NaN
1,0.557264270256383,-1,5.062,110,4,73,0,-1,1,1,-1,1,1,NaN
1,0.52594926054735,1,6.107,110,4,74,1,-1,-1,1,-1,-1,1,NaN
1,0.953289681008755,-1,6.495,110,4,75,0,1,-1,-1,1,-1,-1,NaN
0,0.665690847068618,1,5.206,110,4,76,0,-1,1,-1,-1,1,-1,NaN
1,1.10139864106804,1,5.247,110,4,77,1,-1,-1,1,1,-1,1,NaN
0,0.826150034651619,1,6.305,110,4,78,0,1,-1,-1,1,1,-1,NaN
1,0.822196887565042,1,5.972,110,4,79,1,-1,1,-1,1,1,1,NaN
0,0.673793301450132,1,6.356,110,4,80,0,1,-1,1,1,1,1,NaN
0,1.06857616785783,-1,6.42,110,4,81,1,-1,1,-1,1,1,1,NaN
0,1.30951491556061,1,5.186,110,4,82,0,1,-1,1,-1,1,1,NaN
1,0.903816180999456,-1,5.366,110,4,83,0,-1,1,-1,1,-1,1,NaN
1,0.857741023595736,1,6.463,110,4,84,1,-1,-1,1,-1,1,-1,NaN
1,0.64755105556651,-1,6.147,110,4,85,0,1,-1,-1,1,-1,1,NaN
1,0.595232465626395,1,5.708,110,4,86,1,-1,1,-1,-1,1,-1,NaN
1,0.749977833424055,1,5.383,110,4,87,1,1,-1,1,1,-1,1,NaN
1,0.690171799465134,1,5.527,110,4,88,1,1,1,-1,1,1,-1,NaN
1,0.730191556772297,-1,5.782,110,4,89,0,1,1,1,1,1,1,NaN
0,0.525416042392862,-1,5.513,110,4,90,1,-1,1,1,-1,1,1,NaN
1,0.727490473092985,-1,6.003,110,4,91,0,1,-1,1,-1,-1,1,NaN
1,0.538619985812147,-1,5.825,110,4,92,0,-1,1,-1,-1,-1,-1,NaN
1,0.499131232878426,1,5.189,110,4,93,1,-1,-1,1,-1,-1,-1,NaN
0,0.482634664042962,-1,6.299,110,4,94,1,1,-1,-1,1,-1,-1,NaN
1,0.744546496590374,1,6.193,110,4,95,1,1,1,-1,-1,1,-1,NaN
1,1.11830144033138,1,5.135,110,4,96,1,1,1,1,1,-1,1,NaN
1,0.586785013174449,-1,5.117,110,4,97,0,1,1,1,1,1,-1,NaN
1,0.671671589921061,-1,6.279,110,4,98,0,-1,1,1,-1,1,1,NaN
1,1.1159145010497,1,5.576,110,4,99,1,-1,-1,1,-1,-1,1,NaN
1,1.1329335551909,1,5.779,110,4,100,1,1,-1,-1,1,-1,-1,NaN
1,0.443058745938288,1,5.25,110,5,2,1,-1,1,1,-1,1,1,NaN
1,0.471803024497603,-1,5.843,110,5,3,0,1,-1,1,1,-1,1,NaN
0,0.59824060385381,-1,5.736,110,5,4,1,-1,1,-1,-1,1,-1,NaN
1,0.688538550907651,-1,6.333,110,5,5,0,1,-1,1,-1,-1,1,NaN
1,0.576713003838449,-1,5.233,110,5,6,0,-1,1,-1,-1,-1,-1,NaN
1,0.538999513569252,-1,5.754,110,5,7,0,-1,-1,1,-1,-1,-1,NaN
1,0.770894287059491,-1,5.597,110,5,8,0,-1,-1,-1,-1,-1,-1,NaN
1,0.760555839451627,-1,5.381,110,5,9,0,-1,-1,-1,-1,-1,-1,NaN
1,0.775812269942435,1,5.072,110,5,10,1,-1,-1,-1,-1,-1,-1,NaN
1,0.582920402939635,-1,5.499,110,5,11,0,1,-1,-1,1,-1,-1,NaN
1,0.440372474190553,-1,6.491,110,5,12,0,-1,1,-1,-1,1,-1,NaN
1,0.485555426901556,-1,5.57,110,5,13,0,-1,-1,1,-1,-1,1,NaN
0,0.536638871271862,1,5.273,110,5,14,0,-1,-1,-1,-1,-1,-1,NaN
0,0.683046797340467,-1,5.703,110,5,15,1,-1,-1,-1,1,-1,-1,NaN
1,0.972483307398761,1,5.147,110,5,16,1,1,-1,-1,-1,1,-1,NaN
0,0.976460442887401,-1,5.855,110,5,17,1,1,1,-1,1,-1,1,NaN
1,0.619628072716296,1,5.772,110,5,18,1,1,1,1,-1,1,-1,NaN
0,0.719388371766399,-1,5.906,110,5,19,1,1,1,1,1,-1,1,NaN
0,1.17078608966222,-1,5.345,110,5,20,1,1,1,1,-1,1,-1,NaN
1,0.627819590914442,1,5.416,110,5,21,1,1,1,1,-1,-1,1,NaN
0,0.623634824878536,-1,6.036,110,5,22,1,1,1,1,1,-1,-1,NaN
1,1.17487096521108,-1,5.311,110,5,23,0,1,1,1,-1,1,-1,NaN
1,1.11351160306185,1,5.247,110,5,24,1,-1,1,1,-1,-1,1,NaN
0,0.759329858909041,1,6.334,110,5,25,0,1,-1,1,1,-1,-1,NaN
1,1.17791889265209,1,5.435,110,5,26,1,-1,1,-1,1,1,-1,NaN
1,0.521064713535452,-1,5.421,110,5,27,0,1,-1,1,1,1,1,NaN
0,0.468112589652264,-1,6.07,110,5,28,1,-1,1,-1,-1,1,1,NaN
1,0.789523973364339,-1,5.378,110,5,29,0,1,-1,1,-1,-1,1,NaN
0,0.745418720374801,1,6.001,110,5,30,0,-1,1,-1,-1,-1,-1,NaN
1,0.624214633117845,1,5.543,110,5,31,1,-1,-1,1,1,-1,-1,NaN
0,0.965249508665693,-1,6.009,110,5,32,1,1,-1,-1,1,1,-1,NaN
1,1.03442286091649,1,6.051,110,5,33,1,1,1,-1,-1,1,1,NaN
1,0.591018793600597,-1,5.866,110,5,34,0,1,1,1,1,-1,1,NaN
1,0.508339131160028,-1,5.781,110,5,35,0,-1,1,1,-1,1,-1,NaN
1,0.492928487881727,1,6.492,110,5,36,1,-1,-1,1,-1,-1,1,NaN
1,0.919637295604844,1,5.045,110,5,37,1,1,-1,-1,1,-1,-1,NaN
1,0.576416746212999,1,5.495,110,5,38,1,1,1,-1,1,1,-1,NaN
1,0.661852695307971,-1,6.204,110,5,39,0,1,1,1,1,1,1,NaN
1,0.45482342089872,1,5.145,110,5,40,1,-1,1,1,-1,1,1,NaN
1,0.509761317677658,-1,5.998,110,5,41,0,1,-1,1,1,-1,1,NaN
0,0.510168961301133,-1,5.526,110,5,42,1,-1,1,-1,-1,1,-1,NaN
1,1.16622739014383,1,5.447,110,5,43,1,1,-1,1,-1,-1,1,NaN
0,0.508974465678875,-1,5.978,110,5,44,1,1,1,-1,1,-1,-1,NaN
1,0.647279993592747,-1,5.477,110,5,45,0,1,1,1,-1,1,-1,NaN
1,0.529060804113215,1,6.291,110,5,46,1,-1,1,1,-1,-1,1,NaN
1,0.468119417003436,-1,6.164,110,5,47,0,1,-1,1,1,-1,-1,NaN
1,0.54494859137958,1,5.467,110,5,48,1,-1,1,-1,-1,1,-1,NaN
0,0.656379888983793,-1,5.18,110,5,49,1,1,-1,1,1,-1,1,NaN
0,0.441456974782341,1,5.158,110,5,50,0,1,1,-1,-1,1,-1,NaN
1,0.998818525867136,1,6.467,110,5,51,1,-1,1,1,1,-1,1,NaN
1,0.693671457199343,-1,6.376,110,5,52,0,1,-1,1,1,1,-1,NaN
1,0.516989146197375,1,5.369,110,5,53,1,-1,1,-1,-1,1,1,NaN
1,0.586949496897432,1,5.821,110,5,54,1,1,-1,1,1,-1,1,NaN
1,0.519949822165472,1,6.155,110,5,55,1,1,1,-1,1,1,-1,NaN
0,0.788172967158971,-1,5.281,110,5,56,1,1,1,1,1,1,1,NaN
1,0.457398340317923,-1,5.501,110,5,57,0,1,1,1,-1,1,1,NaN
1,0.488487125942811,-1,5.033,110,5,58,0,-1,1,1,-1,-1,1,NaN
1,0.805953083994609,1,5.692,110,5,59,1,-1,-1,1,-1,-1,-1,NaN
1,0.431339954298892,1,6.327,110,5,60,1,1,-1,-1,1,-1,-1,NaN
1,0.499058312138914,-1,5.859,110,5,61,0,1,1,-1,1,1,-1,NaN
1,0.565525377734957,-1,6.449,110,5,62,0,-1,1,1,-1,1,1,NaN
1,0.611307901876899,-1,5.496,110,5,63,0,-1,-1,1,-1,-1,1,NaN
0,0.543756324575043,-1,5.082,110,5,64,1,-1,-1,-1,-1,-1,-1,NaN
1,0.974303178795708,1,6.386,110,5,65,1,1,-1,-1,-1,-1,-1,NaN
0,0.607365972761727,1,5.355,110,5,66,0,1,1,-1,1,-1,-1,NaN
1,0.718179406149829,1,5.66,110,5,67,1,-1,1,1,1,1,-1,NaN
1,0.597202633196503,1,6.191,110,5,68,1,1,-1,1,1,1,1,NaN
1,0.635066438270769,1,5.611,110,5,69,1,1,1,-1,1,1,1,NaN
1,0.562554509941037,1,6.439,110,5,70,1,1,1,1,1,1,1,NaN
1,0.55434309354041,1,5.227,110,5,71,1,1,1,1,1,1,1,NaN
0,0.545019357507044,-1,6.357,110,5,72,1,1,1,1,1,1,1,NaN
1,0.535967943327705,-1,5.138,110,5,73,0,1,1,1,-1,1,1,NaN
1,0.85155881981791,-1,6.368,110,5,74,0,-1,1,1,-1,-1,1,NaN
0,0.541695165117744,-1,5.929,110,5,75,1,-1,-1,1,-1,-1,-1,NaN
1,0.545708766860116,-1,5.32,110,5,76,0,1,-1,-1,-1,-1,-1,NaN
0,0.552397775431018,1,5.662,110,5,77,0,-1,1,-1,-1,-1,-1,NaN
1,0.846172479094093,1,5.418,110,5,78,1,-1,-1,1,1,-1,-1,NaN
0,0.772281326700067,1,5.596,110,5,79,0,1,-1,-1,1,1,-1,NaN
1,0.627720929578572,-1,5.161,110,5,80,0,-1,1,-1,1,1,1,NaN
1,0.510647717569555,1,6.14,110,5,81,1,-1,-1,1,-1,1,1,NaN
1,0.535478867414895,1,5.728,110,5,82,1,1,-1,-1,1,-1,1,NaN
0,0.462285210622213,1,5.46,110,5,83,0,1,1,-1,1,1,-1,NaN
0,0.914316965564467,-1,6.409,110,5,84,1,-1,1,1,1,1,1,NaN
0,0.768390145210105,-1,6.296,110,5,85,1,1,-1,1,-1,1,1,NaN
1,1.09889513863891,1,6.013,110,5,86,1,1,1,-1,-1,-1,1,NaN
1,0.796334150480106,1,6.098,110,5,87,1,1,1,1,1,-1,-1,NaN
1,0.493818365358493,1,6.028,110,5,88,1,1,1,1,1,1,-1,NaN
1,0.664226762492035,-1,6.297,110,5,89,0,1,1,1,1,1,1,NaN
1,0.478868102202796,1,6.492,110,5,90,1,-1,1,1,-1,1,1,NaN
1,0.451160388621247,1,5.939,110,5,91,1,1,-1,1,1,-1,1,NaN
1,0.50225019744903,1,5.349,110,5,92,1,1,1,-1,1,1,-1,NaN
1,0.506684480324111,-1,6.054,110,5,93,0,1,1,1,1,1,1,NaN
1,0.53782004400091,1,5.143,110,5,94,1,-1,1,1,-1,1,1,NaN
0,0.495157533458041,1,5.436,110,5,95,0,1,-1,1,1,-1,1,NaN
1,0.486592901321274,1,5.463,110,5,96,1,-1,1,-1,1,1,-1,NaN
0,0.543260500749057,1,6.261,110,5,97,0,1,-1,1,1,1,1,NaN
1,1.03361428365952,-1,5.488,110,5,98,0,-1,1,-1,1,1,1,NaN
1,0.601820076363765,-1,5.798,110,5,99,0,-1,-1,1,-1,1,1,NaN
1,0.609930286497729,1,5.536,110,5,100,1,-1,-1,-1,-1,-1,1,NaN
1,0.620030649031378,-1,5.872,112,1,2,0,1,1,-1,1,1,-1,NaN
1,0.970787743133315,1,5.162,112,1,3,1,-1,1,1,-1,1,1,NaN
1,0.676929953710442,1,5.439,112,1,4,1,1,-1,1,1,-1,1,NaN
1,0.818239458715652,1,5.968,112,1,5,1,1,1,-1,1,1,-1,NaN
1,0.623799068001972,1,5.472,112,1,6,1,1,1,1,1,1,1,NaN
1,0.919085746742439,-1,5.429,112,1,7,0,1,1,1,1,1,1,NaN
1,0.644142589129842,-1,6.141,112,1,8,0,-1,1,1,-1,1,1,NaN
1,1.12005524089409,-1,5.328,112,1,9,0,-1,-1,1,-1,-1,1,NaN
1,0.711585182182716,1,5.695,112,1,10,1,-1,-1,-1,-1,-1,-1,NaN
1,0.980496769880574,1,5.684,112,1,11,1,1,-1,-1,1,-1,-1,NaN
1,0.773957030029123,-1,5.38,112,1,12,0,1,1,-1,1,1,-1,NaN
0,1.04451429510118,-1,5.227,112,1,13,1,-1,1,1,-1,1,1,NaN
1,1.31466842714326,1,6.177,112,1,14,1,1,-1,1,-1,-1,1,NaN
0,0.816363192460358,1,5.816,112,1,15,0,1,1,-1,1,-1,-1,NaN
1,0.92641183025944,-1,6.363,112,1,16,0,-1,1,1,1,1,-1,NaN
0,0.747471199600113,-1,5.128,112,1,17,1,-1,-1,1,-1,1,1,NaN
1,0.677657261148852,-1,5.074,112,1,18,0,1,-1,-1,-1,-1,1,NaN
1,0.932083184156909,1,5.648,112,1,19,1,-1,1,-1,-1,-1,-1,NaN
1,1.12786559976712,-1,6.457,112,1,20,0,1,-1,1,1,-1,-1,NaN
1,1.03829020405192,-1,5.945,112,1,21,0,-1,1,-1,-1,1,-1,NaN
0,0.780686076259826,-1,5.133,112,1,22,1,-1,-1,1,-1,-1,1,NaN
1,0.689206459911929,-1,5.232,112,1,23,0,1,-1,-1,-1,-1,-1,NaN
1,0.640388234140119,1,6.488,112,1,24,1,-1,1,-1,-1,-1,-1,NaN
0,0.973848493962123,-1,6.255,112,1,25,1,1,-1,1,1,-1,-1,NaN
0,0.838716911298434,-1,6.491,112,1,26,1,1,1,-1,-1,1,-1,NaN
1,0.870472372851054,1,5.014,112,1,27,1,1,1,1,-1,-1,1,NaN
1,0.65762367784464,-1,6.436,112,1,28,0,1,1,1,1,-1,-1,NaN
1,0.908732915770543,1,6.465,112,1,29,1,-1,1,1,-1,1,-1,NaN
1,1.01354456525269,-1,5.097,112,1,30,0,1,-1,1,1,-1,1,NaN
1,0.858586661087884,1,5.237,112,1,31,1,-1,1,-1,-1,1,-1,NaN
1,0.752534783035117,1,6.055,112,1,32,1,1,-1,1,1,-1,1,NaN
1,0.687448542997572,-1,6.198,112,1,33,0,1,1,-1,1,1,-1,NaN
1,0.561051677661453,1,5.876,112,1,34,1,-1,1,1,-1,1,1,NaN
1,0.548538635249315,1,5.799,112,1,35,1,1,-1,1,1,-1,1,NaN
0,1.17763031559116,1,5.947,112,1,36,0,1,1,-1,1,1,-1,NaN
1,0.912598947048537,1,5.805,112,1,37,1,-1,1,1,1,1,1,NaN
0,1.12130721767107,1,6.424,112,1,38,0,1,-1,1,1,1,1,NaN
1,0.786872347679946,-1,6.151,112,1,39,0,-1,1,-1,1,1,1,NaN
0,0.959475723270771,1,5.254,112,1,40,0,-1,-1,1,-1,1,1,NaN
1,0.852641771220988,1,6.414,112,1,41,1,-1,-1,-1,1,-1,1,NaN
1,1.06454566037473,-1,6.023,112,1,42,0,1,-1,-1,1,1,-1,NaN
1,1.07074514223541,-1,5.75,112,1,43,0,-1,1,-1,-1,1,1,NaN
1,1.04258993533858,1,5.213,112,1,44,1,-1,-1,1,-1,-1,1,NaN
0,0.977279016482498,1,5.031,112,1,45,0,1,-1,-1,1,-1,-1,NaN
1,1.02544379180245,-1,5.108,112,1,46,0,-1,1,-1,1,1,-1,NaN
1,0.730933916744561,1,5.534,112,1,47,1,-1,-1,1,-1,1,1,NaN
1,0.990920570313392,1,6.307,112,1,48,1,1,-1,-1,1,-1,1,NaN
1,0.636152777033203,-1,5.335,112,1,49,0,1,1,-1,1,1,-1,NaN
1,0.63780766095033,1,5.612,112,1,50,1,-1,1,1,-1,1,1,NaN
1,1.06346303947021,-1,5.687,112,1,51,0,1,-1,1,1,-1,1,NaN
1,0.754272023392787,1,6.31,112,1,52,1,-1,1,-1,-1,1,-1,NaN
1,0.750250271328696,-1,5.361,112,1,53,0,1,-1,1,1,-1,1,NaN
1,0.611885304117095,-1,6.148,112,1,54,0,-1,1,-1,-1,1,-1,NaN
1,0.728163930932169,-1,5.759,112,1,55,0,-1,-1,1,-1,-1,1,NaN
0,1.23438303835883,1,5.653,112,1,56,0,-1,-1,-1,-1,-1,-1,NaN
1,1.29016550463848,-1,5.641,112,1,57,0,-1,-1,-1,1,-1,-1,NaN
1,0.683054117004758,1,5.817,112,1,58,1,-1,-1,-1,-1,1,-1,NaN
1,0.691167748167572,-1,5.023,112,1,59,0,1,-1,-1,1,-1,1,NaN
1,1.11711782793191,1,5.603,112,1,60,1,-1,1,-1,-1,1,-1,NaN
1,0.854953244830085,-1,5.147,112,1,61,0,1,-1,1,1,-1,1,NaN
1,0.993122924008276,1,6.462,112,1,62,1,-1,1,-1,-1,1,-1,NaN
0,0.865950466162303,1,6.438,112,1,63,0,1,-1,1,1,-1,1,NaN
1,0.692716670044319,1,5.945,112,1,64,1,-1,1,-1,1,1,-1,NaN
1,0.626605335368822,-1,6.249,112,1,65,0,1,-1,1,1,1,1,NaN
1,0.82797204529561,1,5.679,112,1,66,1,-1,1,-1,-1,1,1,NaN
1,0.81245481951737,-1,6.281,112,1,67,0,1,-1,1,1,-1,1,NaN
1,0.913134774208629,-1,5.99,112,1,68,0,-1,1,-1,-1,1,-1,NaN
1,1.1203984717331,1,5.409,112,1,69,1,-1,-1,1,-1,-1,1,NaN
1,0.563800351419559,-1,6.017,112,1,70,0,1,-1,-1,1,-1,-1,NaN
0,1.36122127674844,1,6.255,112,1,71,0,-1,1,-1,-1,1,-1,NaN
0,0.70485557596885,-1,5.954,112,1,72,1,-1,-1,1,1,-1,1,NaN
1,0.738222620970191,-1,5.195,112,1,73,0,1,-1,-1,-1,1,-1,NaN
1,0.928151706102199,1,5.974,112,1,74,1,-1,1,-1,-1,-1,1,NaN
0,1.32050498296803,1,5.069,112,1,75,0,1,-1,1,1,-1,-1,NaN
1,0.820208641329373,-1,6.326,112,1,76,0,-1,1,-1,1,1,-1,NaN
1,0.750960041124017,-1,6.054,112,1,77,0,-1,-1,1,-1,1,1,NaN
1,0.805526199566884,1,6.41,112,1,78,1,-1,-1,-1,-1,-1,1,NaN
1,0.616802741727952,-1,6.276,112,1,79,0,1,-1,-1,1,-1,-1,NaN
1,0.76755578976281,1,5.406,112,1,80,1,-1,1,-1,-1,1,-1,NaN
1,0.700626648403613,-1,5.039,112,1,81,0,1,-1,1,1,-1,1,NaN
1,1.03417291158576,1,6.485,112,1,82,1,-1,1,-1,-1,1,-1,NaN
1,0.508380176004266,-1,6.437,112,1,83,0,1,-1,1,1,-1,1,NaN
1,0.556334742499075,1,5.732,112,1,84,1,-1,1,-1,-1,1,-1,NaN
1,0.759463500728998,1,5.527,112,1,85,1,1,-1,1,1,-1,1,NaN
1,0.613005743996382,1,6.256,112,1,86,1,1,1,-1,1,1,-1,NaN
0,1.17235039914749,-1,6.391,112,1,87,1,1,1,1,1,1,1,NaN
0,1.08756769782485,1,5.332,112,1,88,0,1,1,1,-1,1,1,NaN
1,0.707699177514314,-1,6.406,112,1,89,0,-1,1,1,1,-1,1,NaN
1,0.721282231564146,-1,5.735,112,1,90,0,-1,-1,1,-1,1,-1,NaN
1,0.689445492347204,-1,5.704,112,1,91,0,-1,-1,-1,-1,-1,1,NaN
1,0.787455490647517,1,5.881,112,1,92,1,-1,-1,-1,-1,-1,-1,NaN
0,1.32985457597533,1,5.481,112,1,93,0,1,-1,-1,1,-1,-1,NaN
1,0.843065062993901,1,6.142,112,1,94,1,-1,1,-1,1,1,-1,NaN
1,0.717479241391175,1,6.283,112,1,95,1,1,-1,1,1,1,1,NaN
1,0.69364075815156,-1,5.866,112,1,96,0,1,1,-1,1,1,1,NaN
1,0.792780869363469,-1,6.153,112,1,97,0,-1,1,1,-1,1,1,NaN
1,0.639578675523808,-1,5.406,112,1,98,0,-1,-1,1,-1,-1,1,NaN
1,0.617257862648785,-1,6.035,112,1,99,0,-1,-1,-1,-1,-1,-1,NaN
1,0.656970133245522,-1,5.137,112,1,100,0,-1,-1,-1,-1,-1,-1,NaN
1,0.974597699590049,-1,5.439,112,2,2,0,1,-1,-1,1,-1,-1,NaN
1,0.617447466835074,1,6.274,112,2,3,1,-1,1,-1,-1,1,-1,NaN
1,1.00380206863611,1,5.511,112,2,4,1,1,-1,1,1,-1,1,NaN
1,1.04738694157004,-1,5.46,112,2,5,0,1,1,-1,1,1,-1,NaN
0,0.914170586985165,-1,6.47,112,2,6,1,-1,1,1,-1,1,1,NaN
1,0.573567358827859,1,5.276,112,2,7,1,1,-1,1,-1,-1,1,NaN
1,0.897501440330416,-1,5.169,112,2,8,0,1,1,-1,1,-1,-1,NaN
1,0.853969931873507,-1,5.248,112,2,9,0,-1,1,1,-1,1,-1,NaN
0,0.691323668037512,-1,5.318,112,2,10,1,-1,-1,1,-1,-1,1,NaN
1,0.822070527488904,-1,5.379,112,2,11,0,1,-1,-1,-1,-1,-1,NaN
1,1.17878228158042,1,6.044,112,2,12,1,-1,1,-1,-1,-1,-1,NaN
1,0.698425125367066,-1,6.03,112,2,13,0,1,-1,1,1,-1,-1,NaN
1,0.862878922334858,-1,5.535,112,2,14,0,-1,1,-1,-1,1,-1,NaN
1,0.655380726179828,-1,6.075,112,2,15,0,-1,-1,1,-1,-1,1,NaN
1,0.60047220188153,1,5.001,112,2,16,1,-1,-1,-1,-1,-1,-1,NaN
1,0.787603993436278,-1,6.196,112,2,17,0,1,-1,-1,1,-1,-1,NaN
1,0.663520860929566,1,5.41,112,2,18,1,-1,1,-1,-1,1,-1,NaN
1,0.680066030950911,-1,6.059,112,2,19,0,1,-1,1,1,-1,1,NaN
1,0.800363011356239,1,5.198,112,2,20,1,-1,1,-1,-1,1,-1,NaN
1,0.590767017214603,-1,6.202,112,2,21,0,1,-1,1,1,-1,1,NaN
1,1.22636346313539,1,6.303,112,2,22,1,-1,1,-1,-1,1,-1,NaN
0,1.40980193656742,-1,6.003,112,2,23,1,1,-1,1,1,-1,1,NaN
1,0.647443323351581,-1,5.059,112,2,25,0,-1,1,1,1,-1,1,NaN
1,0.930481051774223,1,5.774,112,2,26,1,-1,-1,1,-1,1,-1,NaN
1,0.750913086544642,-1,5.381,112,2,27,0,1,-1,-1,1,-1,1,NaN
1,0.792539175291495,1,5.232,112,2,28,1,-1,1,-1,-1,1,-1,NaN
1,1.07542172068133,1,5.476,112,2,29,1,1,-1,1,1,-1,1,NaN
1,0.948439269111987,1,5.537,112,2,30,1,1,1,-1,1,1,-1,NaN
0,1.07157502402788,1,5.152,112,2,31,0,1,1,1,1,1,1,NaN
1,0.971370675575599,-1,5.165,112,2,32,0,-1,1,1,1,1,1,NaN
1,0.874685664690332,-1,5.09,112,2,33,0,-1,-1,1,-1,1,1,NaN
0,0.631840399212706,-1,5.366,112,2,34,1,-1,-1,-1,-1,-1,1,NaN
1,0.723904692025826,1,5.58,112,2,35,1,1,-1,-1,-1,-1,-1,NaN
0,0.727403965976009,1,5.673,112,2,36,0,1,1,-1,1,-1,-1,NaN
0,0.718060455636078,1,5.286,112,2,37,0,-1,1,1,1,1,-1,NaN
1,0.870824874305981,-1,5.877,112,2,38,0,-1,-1,1,1,1,1,NaN
0,0.848658158168291,1,5.26,112,2,39,0,-1,-1,-1,-1,1,1,NaN
1,0.69614767049643,1,5.152,112,2,40,1,-1,-1,-1,1,-1,1,NaN
1,0.854190644389746,-1,6.131,112,2,41,0,1,-1,-1,1,1,-1,NaN
1,0.962737938620194,-1,5.332,112,2,42,0,-1,1,-1,-1,1,1,NaN
1,0.573891774162803,1,5.135,112,2,43,1,-1,-1,1,-1,-1,1,NaN
1,0.586831761152098,1,5.042,112,2,44,1,1,-1,-1,1,-1,-1,NaN
1,0.863849743054743,-1,6.336,112,2,45,0,1,1,-1,1,1,-1,NaN
1,0.506799212819715,1,5.081,112,2,46,1,-1,1,1,-1,1,1,NaN
0,0.540505830952497,-1,5.593,112,2,47,1,1,-1,1,1,-1,1,NaN
0,1.03222466083935,-1,5.982,112,2,48,1,1,1,-1,-1,1,-1,NaN
1,0.894250236023254,-1,6.228,112,2,49,0,1,1,1,-1,-1,1,NaN
0,0.815547280829378,-1,6.416,112,2,50,1,-1,1,1,-1,-1,-1,NaN
1,0.594099423998159,-1,5.293,112,2,51,0,1,-1,1,-1,-1,-1,NaN
0,0.579375930200513,-1,5.622,112,2,52,1,-1,1,-1,-1,-1,-1,NaN
1,0.969832020058675,1,5.376,112,2,53,1,1,-1,1,-1,-1,-1,NaN
0,0.89796847487105,1,6.444,112,2,54,0,1,1,-1,1,-1,-1,NaN
1,0.716620468647307,-1,5.981,112,2,55,0,-1,1,1,1,1,-1,NaN
1,0.778140593066382,-1,5.717,112,2,56,0,-1,-1,1,-1,1,1,NaN
1,0.556913509229162,1,6.138,112,2,57,1,-1,-1,-1,-1,-1,1,NaN
1,0.70480166654761,1,5.607,112,2,58,1,1,-1,-1,1,-1,-1,NaN
1,0.750581735653213,-1,5.163,112,2,59,0,1,1,-1,1,1,-1,NaN
1,0.97709378820673,1,5.383,112,2,60,1,-1,1,1,-1,1,1,NaN
1,0.824032841564076,1,5.617,112,2,61,1,1,-1,1,1,-1,1,NaN
0,1.12542527704954,1,6.136,112,2,62,0,1,1,-1,1,1,-1,NaN
1,0.857353240580778,-1,6.43,112,2,63,0,-1,1,1,1,1,1,NaN
1,1.01515230269797,-1,5.941,112,2,64,0,-1,-1,1,-1,1,1,NaN
1,0.80121612248422,-1,5.458,112,2,65,0,-1,-1,-1,-1,-1,1,NaN
0,1.18405288621852,1,5.018,112,2,66,0,-1,-1,-1,-1,-1,-1,NaN
1,1.00495776784737,-1,5.351,112,2,67,0,-1,-1,-1,1,-1,-1,NaN
1,0.688712455949826,-1,5.16,112,2,68,0,-1,-1,-1,-1,1,-1,NaN
1,0.712420349655076,-1,5.921,112,2,69,0,-1,-1,-1,-1,-1,1,NaN
0,0.68754450869892,1,5.95,112,2,70,0,-1,-1,-1,-1,-1,-1,NaN
0,0.759020665114804,-1,5.674,112,2,71,1,-1,-1,-1,1,-1,-1,NaN
0,0.91773908245159,1,6.246,112,2,72,0,1,-1,-1,-1,1,-1,NaN
1,0.64697673601313,-1,5.473,112,2,73,0,-1,1,-1,1,-1,1,NaN
1,0.600172451961953,-1,5.023,112,2,74,0,-1,-1,1,-1,1,-1,NaN
1,0.548063743617604,1,6.089,112,2,75,1,-1,-1,-1,-1,-1,1,NaN
1,0.670148472059736,-1,5.523,112,2,76,0,1,-1,-1,1,-1,-1,NaN
1,0.817850678975446,1,6.287,112,2,77,1,-1,1,-1,-1,1,-1,NaN
1,0.522409388954657,-1,5.49,112,2,78,0,1,-1,1,1,-1,1,NaN
1,0.917619436616405,1,6.403,112,2,79,1,-1,1,-1,-1,1,-1,NaN
1,0.958537594066001,-1,6.153,112,2,80,0,1,-1,1,1,-1,1,NaN
1,0.873649167707299,1,5.724,112,2,81,1,-1,1,-1,-1,1,-1,NaN
1,0.667049510954712,1,6.308,112,2,82,1,1,-1,1,1,-1,1,NaN
1,0.936347565886535,1,5.936,112,2,83,1,1,1,-1,1,1,-1,NaN
1,0.856621256481048,1,5.466,112,2,84,1,1,1,1,1,1,1,NaN
1,0.774449643349726,1,5.711,112,2,85,1,1,1,1,1,1,1,NaN
0,1.13180882570305,1,5.628,112,2,86,0,1,1,1,1,1,1,NaN
1,0.729585914115887,1,5.93,112,2,87,1,-1,1,1,1,1,1,NaN
0,0.979698974180792,1,5.869,112,2,88,0,1,-1,1,1,1,1,NaN
1,1.39208692097509,-1,5.955,112,2,89,0,-1,1,-1,1,1,1,NaN
1,1.0216305650174,1,6.019,112,2,90,1,-1,-1,1,-1,1,1,NaN
1,1.29224231060925,-1,5.302,112,2,91,0,1,-1,-1,1,-1,1,NaN
1,1.03888194062165,-1,5.238,112,2,92,0,-1,1,-1,-1,1,-1,NaN
1,1.01918532536547,1,6.389,112,2,93,1,-1,-1,1,-1,-1,1,NaN
0,0.888795459656649,1,5.198,112,2,94,0,1,-1,-1,1,-1,-1,NaN
1,0.791519772345055,1,6.452,112,2,95,1,-1,1,-1,1,1,-1,NaN
1,0.99310723630424,-1,6.026,112,2,96,0,1,-1,1,1,1,1,NaN
1,0.716411842355228,-1,6.471,112,2,97,0,-1,1,-1,-1,1,1,NaN
1,0.890363738713859,1,6.462,112,2,98,1,-1,-1,1,-1,-1,1,NaN
1,0.999829166203199,-1,5.794,112,2,99,0,1,-1,-1,1,-1,-1,NaN
1,0.797914738053805,1,5.215,112,2,100,1,-1,1,-1,-1,1,-1,NaN
1,0.648330264922151,-1,6.261,112,3,2,0,-1,1,-1,-1,1,-1,NaN
0,0.732445669855224,-1,5.919,112,3,3,1,-1,-1,1,-1,-1,1,NaN
1,0.605812140816852,-1,5.99,112,3,4,0,1,-1,-1,-1,-1,-1,NaN
1,0.769199121287784,1,5.271,112,3,5,1,-1,1,-1,-1,-1,-1,NaN
1,1.06978231034736,1,6.422,112,3,6,1,1,-1,1,1,-1,-1,NaN
1,1.20712416787046,1,5.017,112,3,7,1,1,1,-1,1,1,-1,NaN
1,0.704914293466572,-1,5.452,112,3,8,0,1,1,1,1,1,1,NaN
0,0.855482534602743,-1,6.091,112,3,9,1,-1,1,1,-1,1,1,NaN
1,0.902263845283414,1,5.341,112,3,10,1,1,-1,1,-1,-1,1,NaN
1,0.83246152362608,1,6.331,112,3,11,1,1,1,-1,1,-1,-1,NaN
0,1.13084465907377,1,5.123,112,3,12,0,1,1,1,1,1,-1,NaN
1,0.86652862387291,1,5.183,112,3,13,1,-1,1,1,1,1,1,NaN
1,1.0575489954299,-1,5.943,112,3,14,0,1,-1,1,1,1,1,NaN
0,1.13383823740878,-1,5.11,112,3,15,1,-1,1,-1,-1,1,1,NaN
1,0.946640630331785,-1,5.365,112,3,16,0,1,-1,1,-1,-1,1,NaN
0,0.523921999202685,-1,6.378,112,3,17,1,-1,1,-1,-1,-1,-1,NaN
1,0.949971003457904,1,5.278,112,3,18,1,1,-1,1,-1,-1,-1,NaN
0,1.38078949107876,1,5.668,112,3,19,0,1,1,-1,1,-1,-1,NaN
1,1.18218228942533,-1,5.861,112,3,21,0,1,-1,1,-1,1,1,NaN
1,0.931621198619723,-1,6.466,112,3,22,0,-1,1,-1,-1,-1,1,NaN
1,1.01256736471169,1,5.743,112,3,23,1,-1,-1,1,-1,-1,-1,NaN
1,1.15009811606342,1,5.103,112,3,24,1,1,-1,-1,1,-1,-1,NaN
1,0.85292845747972,-1,6.365,112,3,25,0,1,1,-1,1,1,-1,NaN
1,0.829133379971609,1,5.597,112,3,26,1,-1,1,1,-1,1,1,NaN
1,0.760582121399239,1,5.395,112,3,27,1,1,-1,1,1,-1,1,NaN
1,0.878946362233364,1,5.53,112,3,28,1,1,1,-1,1,1,-1,NaN
1,0.660211559584241,-1,6.327,112,3,29,0,1,1,1,1,1,1,NaN
1,0.532513480788111,-1,6.002,112,3,30,0,-1,1,1,-1,1,1,NaN
1,0.723689697027112,1,5.612,112,3,31,1,-1,-1,1,-1,-1,1,NaN
1,0.829307281090223,1,5.967,112,3,32,1,1,-1,-1,1,-1,-1,NaN
1,0.574672881838524,-1,6.23,112,3,33,0,1,1,-1,1,1,-1,NaN
0,0.512267417670046,-1,6.089,112,3,34,1,-1,1,1,-1,1,1,NaN
1,0.5697117678219,-1,5.188,112,3,35,0,1,-1,1,-1,-1,1,NaN
1,0.86850282901014,1,5.26,112,3,36,1,-1,1,-1,-1,-1,-1,NaN
1,0.612333643127386,1,5.206,112,3,37,1,1,-1,1,1,-1,-1,NaN
1,0.783518068858029,1,6.074,112,3,38,1,1,1,-1,1,1,-1,NaN
0,1.1368792623125,1,5.813,112,3,39,0,1,1,1,1,1,1,NaN
1,0.695173729494854,1,5.545,112,3,40,1,-1,1,1,1,1,1,NaN
0,1.09702160953475,-1,5.477,112,3,41,1,1,-1,1,1,1,1,NaN
1,1.0981473805341,1,5.917,112,3,42,1,1,1,-1,-1,1,1,NaN
1,1.04284421187185,1,5.937,112,3,43,1,1,1,1,1,-1,1,NaN
1,0.755206122548771,1,6.462,112,3,44,1,1,1,1,1,1,-1,NaN
0,0.966366802113043,-1,6.44,112,3,45,1,1,1,1,1,1,1,NaN
1,0.988297185045667,1,6.255,112,3,46,1,1,1,1,-1,1,1,NaN
1,0.78858968264376,-1,5.157,112,3,47,0,1,1,1,1,-1,1,NaN
1,0.849206602114464,1,5.88,112,3,48,1,-1,1,1,-1,1,-1,NaN
1,0.678351128793111,1,5.59,112,3,49,1,1,-1,1,1,-1,1,NaN
1,0.80106080378664,1,5.373,112,3,50,1,1,1,-1,1,1,-1,NaN
1,0.967779755281299,-1,6.064,112,3,51,0,1,1,1,1,1,1,NaN
1,0.929388573791584,-1,6.256,112,3,52,0,-1,1,1,-1,1,1,NaN
1,1.12218097527966,1,6.418,112,3,53,1,-1,-1,1,-1,-1,1,NaN
1,1.27802727572907,1,5.575,112,3,54,1,1,-1,-1,1,-1,-1,NaN
0,0.983345273976738,1,6.309,112,3,55,0,1,1,-1,1,1,-1,NaN
1,1.25322798674097,-1,5.878,112,3,56,0,-1,1,1,1,1,1,NaN
1,1.11536531307411,1,6.46,112,3,57,1,-1,-1,1,-1,1,1,NaN
1,1.18580811567062,1,5.437,112,3,58,1,1,-1,-1,1,-1,1,NaN
1,1.05443078273493,1,5.16,112,3,59,1,1,1,-1,1,1,-1,NaN
1,1.036439682317,-1,5.889,112,3,61,0,-1,1,1,1,1,1,NaN
1,0.769762091127632,-1,5.217,112,3,62,0,-1,-1,1,-1,1,1,NaN
1,0.605200753836471,1,5.877,112,3,63,1,-1,-1,-1,-1,-1,1,NaN
1,0.831975364985738,-1,6.341,112,3,64,0,1,-1,-1,1,-1,-1,NaN
0,1.25465674039333,-1,5.053,112,3,65,1,-1,1,-1,-1,1,-1,NaN
1,0.56833625049785,-1,5.268,112,3,66,0,1,-1,1,-1,-1,1,NaN
0,0.73826194009871,1,5.133,112,3,67,0,-1,1,-1,-1,-1,-1,NaN
0,1.09080391334464,-1,5.189,112,3,68,1,-1,-1,1,1,-1,-1,NaN
1,0.967659665840984,1,5.298,112,3,69,1,1,-1,-1,-1,1,-1,NaN
0,0.708284745114725,1,6.303,112,3,70,0,1,1,-1,1,-1,1,NaN
1,0.924572503939089,1,6.107,112,3,71,1,-1,1,1,1,1,-1,NaN
1,0.83615794306661,-1,5.85,112,3,72,0,1,-1,1,1,1,1,NaN
0,0.909255017620126,-1,5.131,112,3,73,1,-1,1,-1,-1,1,1,NaN
1,1.12588165785201,1,6.272,112,3,74,1,1,-1,1,-1,-1,1,NaN
0,1.08944821544173,-1,5.274,112,3,75,1,1,1,-1,1,-1,-1,NaN
0,0.932967934174485,-1,5.264,112,3,76,1,1,1,1,-1,1,-1,NaN
1,0.85939500134009,-1,5.905,112,3,77,0,1,1,1,-1,-1,1,NaN
1,0.820622908971018,-1,5.726,112,3,78,0,-1,1,1,-1,-1,-1,NaN
0,0.665083147870973,-1,5.867,112,3,79,1,-1,-1,1,-1,-1,-1,NaN
0,0.992484736614642,1,5.109,112,3,80,0,1,-1,-1,-1,-1,-1,NaN
1,0.729952704788047,-1,5.205,112,3,81,0,-1,1,-1,1,-1,-1,NaN
1,0.83469370059629,1,6.37,112,3,82,1,-1,-1,1,-1,1,-1,NaN
1,0.840866799170726,1,5.722,112,3,83,1,1,-1,-1,1,-1,1,NaN
1,1.254631571549,-1,5.078,112,3,84,0,1,1,-1,1,1,-1,NaN
0,0.727482923943171,-1,6.413,112,3,85,1,-1,1,1,-1,1,1,NaN
1,0.764396945754015,-1,6.18,112,3,86,0,1,-1,1,-1,-1,1,NaN
1,0.64604694542686,1,6.276,112,3,87,1,-1,1,-1,-1,-1,-1,NaN
1,0.750831015815493,-1,6.485,112,3,88,0,1,-1,1,1,-1,-1,NaN
0,0.943378711809601,-1,5.22,112,3,89,1,-1,1,-1,-1,1,-1,NaN
1,0.635663366372683,-1,5.52,112,3,90,0,1,-1,1,-1,-1,1,NaN
0,0.921250683551989,-1,5.559,112,3,91,1,-1,1,-1,-1,-1,-1,NaN
1,0.731720340174434,-1,6.078,112,3,92,0,1,-1,1,-1,-1,-1,NaN
1,1.04915302776681,-1,5.519,112,3,93,0,-1,1,-1,-1,-1,-1,NaN
1,0.771680830462174,1,6.18,112,3,94,1,-1,-1,1,-1,-1,-1,NaN
1,0.880292289687532,-1,6.23,112,3,95,0,1,-1,-1,1,-1,-1,NaN
1,0.746637836300579,1,6.143,112,3,96,1,-1,1,-1,-1,1,-1,NaN
1,0.917316874685639,1,5.919,112,3,97,1,1,-1,1,1,-1,1,NaN
0,1.17475695484245,1,5.688,112,3,98,0,1,1,-1,1,1,-1,NaN
1,1.17148691214788,-1,6.434,112,3,99,0,-1,1,1,1,1,1,NaN
1,0.609576507182283,1,6.055,112,3,100,1,-1,-1,1,-1,1,1,NaN
1,1.1528505867891,-1,5.56,112,4,2,0,-1,1,-1,-1,1,-1,NaN
1,0.998383242998898,-1,5.222,112,4,3,0,-1,-1,1,-1,-1,1,NaN
1,0.767399046426362,1,6.252,112,4,4,1,-1,-1,-1,-1,-1,-1,NaN
1,0.590781667658121,-1,6.28,112,4,5,0,1,-1,-1,1,-1,-1,NaN
1,0.930873462742966,-1,6.315,112,4,6,0,-1,1,-1,-1,1,-1,NaN
0,0.895882601290396,-1,6.102,112,4,7,1,-1,-1,1,-1,-1,1,NaN
1,1.02519404155646,1,5.38,112,4,8,1,1,-1,-1,-1,-1,-1,NaN
1,0.927400846348974,-1,5.302,112,4,9,0,1,1,-1,1,-1,-1,NaN
1,0.838101072892641,1,5.802,112,4,10,1,-1,1,1,-1,1,-1,NaN
1,1.241542946761,-1,5.735,112,4,11,0,1,-1,1,1,-1,1,NaN
1,0.856830867729514,1,6.283,112,4,12,1,-1,1,-1,-1,1,-1,NaN
1,0.827478559800511,-1,5.599,112,4,13,0,1,-1,1,1,-1,1,NaN
0,1.16014050512968,-1,5.064,112,4,14,1,-1,1,-1,-1,1,-1,NaN
0,0.758213813246584,-1,5.565,112,4,15,1,1,-1,1,-1,-1,1,NaN
0,0.675460144097997,1,6.327,112,4,16,0,1,1,-1,-1,-1,-1,NaN
0,1.43598410013692,1,5.971,112,4,17,0,-1,1,1,1,-1,-1,NaN
1,0.905277272786407,-1,5.984,112,4,18,0,-1,-1,1,1,1,-1,NaN
1,0.674730907937374,-1,5.794,112,4,19,0,-1,-1,-1,-1,1,1,NaN
0,1.13244508470052,-1,5.271,112,4,20,1,-1,-1,-1,-1,-1,1,NaN
1,0.68504866395142,1,5.383,112,4,21,1,1,-1,-1,-1,-1,-1,NaN
1,1.30922669580468,-1,5.665,112,4,22,0,1,1,-1,1,-1,-1,NaN
1,0.993824130277062,1,5.046,112,4,23,1,-1,1,1,-1,1,-1,NaN
0,0.993583582977408,1,5.332,112,4,24,0,1,-1,1,1,-1,1,NaN
1,0.94193378892578,1,5.955,112,4,25,1,-1,1,-1,1,1,-1,NaN
1,1.38972114696844,-1,5.914,112,4,26,0,1,-1,1,1,1,1,NaN
1,1.07938065720373,1,5.35,112,4,27,1,-1,1,-1,-1,1,1,NaN
1,1.44260410948664,-1,5.032,112,4,28,0,1,-1,1,1,-1,1,NaN
1,0.706554455675359,1,5.891,112,4,29,1,-1,1,-1,-1,1,-1,NaN
1,0.817932768664832,-1,5.666,112,4,30,0,1,-1,1,1,-1,1,NaN
1,0.942546818916526,-1,5.958,112,4,31,0,-1,1,-1,-1,1,-1,NaN
1,1.00192799425895,-1,5.023,112,4,32,0,-1,-1,1,-1,-1,1,NaN
1,0.698837374715367,1,5.615,112,4,33,1,-1,-1,-1,-1,-1,-1,NaN
1,0.742567938425054,1,6.267,112,4,34,1,1,-1,-1,1,-1,-1,NaN
1,0.843467951500315,1,6.076,112,4,35,1,1,1,-1,1,1,-1,NaN
1,0.86716879261985,1,6.102,112,4,36,1,1,1,1,1,1,1,NaN
0,1.15906633562463,1,5.017,112,4,37,0,1,1,1,1,1,1,NaN
0,1.07291010912013,1,6.374,112,4,38,0,-1,1,1,1,1,1,NaN
1,0.753230470215385,-1,6.305,112,4,39,0,-1,-1,1,1,1,1,NaN
1,0.939309189544474,1,6.459,112,4,40,1,-1,-1,-1,-1,1,1,NaN
1,1.11987373080228,-1,5.47,112,4,41,0,1,-1,-1,1,-1,1,NaN
0,1.07168012860348,-1,5.931,112,4,42,1,-1,1,-1,-1,1,-1,NaN
1,1.07914374538268,-1,5.203,112,4,43,0,1,-1,1,-1,-1,1,NaN
1,0.736289693757499,1,5.609,112,4,44,1,-1,1,-1,-1,-1,-1,NaN
1,1.03295024648469,-1,5.634,112,4,45,0,1,-1,1,1,-1,-1,NaN
1,0.606488835639539,-1,5.053,112,4,46,0,-1,1,-1,-1,1,-1,NaN
0,1.12053412498062,-1,5.007,112,4,47,1,-1,-1,1,-1,-1,1,NaN
0,1.31715564396472,1,6.075,112,4,48,0,1,-1,-1,-1,-1,-1,NaN
0,0.971359799543279,1,5.396,112,4,50,0,-1,-1,1,1,1,-1,NaN
0,1.29621152133677,1,6.338,112,4,51,0,-1,-1,-1,1,1,1,NaN
1,0.839394331517724,-1,5.865,112,4,52,0,-1,-1,-1,1,1,1,NaN
1,0.726841435819551,-1,5.804,112,4,53,0,-1,-1,-1,-1,1,1,NaN
0,0.653951314473488,1,5.809,112,4,54,0,-1,-1,-1,-1,-1,1,NaN
1,1.11747647187622,1,5.436,112,4,55,1,-1,-1,-1,1,-1,-1,NaN
1,0.854622314663175,-1,6.42,112,4,56,0,1,-1,-1,1,1,-1,NaN
1,0.790785479990518,1,5.407,112,4,57,1,-1,1,-1,-1,1,1,NaN
1,0.91716390576039,-1,5.96,112,4,58,0,1,-1,1,1,-1,1,NaN
1,1.25094256166994,1,6.496,112,4,59,1,-1,1,-1,-1,1,-1,NaN
1,0.948940138017861,-1,5.319,112,4,60,0,1,-1,1,1,-1,1,NaN
1,0.921485854946695,-1,5.02,112,4,61,0,-1,1,-1,-1,1,-1,NaN
1,0.768751308588435,-1,5.061,112,4,62,0,-1,-1,1,-1,-1,1,NaN
1,0.961976676843733,-1,5.332,112,4,63,0,-1,-1,-1,-1,-1,-1,NaN
1,0.741154594282307,1,5.294,112,4,64,1,-1,-1,-1,-1,-1,-1,NaN
1,0.728995241286611,1,6.077,112,4,65,1,1,-1,-1,1,-1,-1,NaN
1,0.439071294728819,1,5.628,112,4,67,1,1,1,1,-1,1,1,NaN
1,0.696158467418172,1,5.982,112,4,68,1,1,1,1,1,-1,1,NaN
1,0.827337714692476,-1,6.453,112,4,69,0,1,1,1,1,1,-1,NaN
1,0.741148789481485,1,5.032,112,4,70,1,-1,1,1,-1,1,1,NaN
0,0.572684327006755,1,5.986,112,4,71,0,1,-1,1,1,-1,1,NaN
1,0.773139095527767,-1,5.942,112,4,72,0,-1,1,-1,1,1,-1,NaN
1,0.532714235278036,-1,6.432,112,4,73,0,-1,-1,1,-1,1,1,NaN
0,0.678474319880479,1,5.044,112,4,74,0,-1,-1,-1,-1,-1,1,NaN
1,0.577379059633131,-1,5.781,112,4,75,0,-1,-1,-1,1,-1,-1,NaN
1,0.576583361991652,1,5.652,112,4,76,1,-1,-1,-1,-1,1,-1,NaN
0,0.856181522512998,1,5.797,112,4,77,0,1,-1,-1,1,-1,1,NaN
1,0.878464749167506,1,6.292,112,4,78,1,-1,1,-1,1,1,-1,NaN
1,0.935629924289969,1,6.059,112,4,79,1,1,-1,1,1,1,1,NaN
1,0.833956141509589,1,6.208,112,4,80,1,1,1,-1,1,1,1,NaN
0,0.969412037842631,-1,5.76,112,4,81,1,1,1,1,1,1,1,NaN
1,0.681258482128214,1,5.816,112,4,82,1,1,1,1,-1,1,1,NaN
1,1.0435108430147,-1,6.308,112,4,83,0,1,1,1,1,-1,1,NaN
1,0.752310652757842,1,5.767,112,4,84,1,-1,1,1,-1,1,-1,NaN
1,0.774636747390105,-1,5.483,112,4,85,0,1,-1,1,1,-1,1,NaN
0,0.92474871331342,1,6.02,112,4,86,0,-1,1,-1,-1,1,-1,NaN
1,0.48817853005221,1,5.6,112,4,87,1,-1,-1,1,1,-1,1,NaN
1,0.84127417277432,1,5.317,112,4,88,1,1,-1,-1,1,1,-1,NaN
1,0.906743992846714,-1,5.779,112,4,89,0,1,1,-1,1,1,1,NaN
0,0.678965839059856,-1,6.29,112,4,90,1,-1,1,1,-1,1,1,NaN
1,0.653172078966236,-1,5.499,112,4,91,0,1,-1,1,-1,-1,1,NaN
1,0.841850638766118,-1,6.43,112,4,92,0,-1,1,-1,-1,-1,-1,NaN
0,0.99838965681829,1,6.272,112,4,93,0,-1,-1,1,-1,-1,-1,NaN
1,0.754816076063435,-1,6.197,112,4,94,0,-1,-1,-1,1,-1,-1,NaN
1,0.679322084850355,1,6.396,112,4,95,1,-1,-1,-1,-1,1,-1,NaN
1,0.798066169557387,1,5.493,112,4,96,1,1,-1,-1,1,-1,1,NaN
1,0.931520631444073,-1,5.887,112,4,97,0,1,1,-1,1,1,-1,NaN
1,0.570930308399511,-1,5.399,112,4,98,0,-1,1,1,-1,1,1,NaN
1,0.674255636772614,1,6.184,112,4,99,1,-1,-1,1,-1,-1,1,NaN
1,1.16068757281755,1,6.485,112,4,100,1,1,-1,-1,1,-1,-1,NaN
1,0.52967719858043,1,5.526,112,5,2,1,-1,1,1,-1,1,1,NaN
1,0.563929534949239,-1,6.497,112,5,3,0,1,-1,1,1,-1,1,NaN
1,0.914637016429879,-1,5.691,112,5,4,0,-1,1,-1,-1,1,-1,NaN
1,0.716772306163875,-1,6.49,112,5,5,0,-1,-1,1,-1,-1,1,NaN
1,0.670644637824807,-1,6.43,112,5,6,0,-1,-1,-1,-1,-1,-1,NaN
1,0.446261774032791,-1,5.247,112,5,7,0,-1,-1,-1,-1,-1,-1,NaN
1,0.541753149701435,-1,5.452,112,5,8,0,-1,-1,-1,-1,-1,-1,NaN
0,0.955774563095474,-1,6.264,112,5,9,1,-1,-1,-1,-1,-1,-1,NaN
1,0.846486751313023,1,5.021,112,5,10,1,1,-1,-1,-1,-1,-1,NaN
1,0.567050209871013,-1,5.23,112,5,11,0,1,1,-1,1,-1,-1,NaN
1,0.94346884296192,-1,6.05,112,5,12,0,-1,1,1,-1,1,-1,NaN
1,0.909929656229906,-1,6.182,112,5,13,0,-1,-1,1,-1,-1,1,NaN
1,0.861549678982556,1,5.936,112,5,14,1,-1,-1,-1,-1,-1,-1,NaN
1,0.706009267347326,-1,6.193,112,5,15,0,1,-1,-1,1,-1,-1,NaN
1,1.35246170244045,1,6.061,112,5,16,1,-1,1,-1,-1,1,-1,NaN
1,0.530802882949502,-1,6.298,112,5,17,0,1,-1,1,1,-1,1,NaN
1,0.595004591013094,1,5.449,112,5,18,1,-1,1,-1,-1,1,-1,NaN
1,0.774658829952386,-1,5.365,112,5,19,0,1,-1,1,1,-1,1,NaN
1,1.10968995528037,-1,6.185,112,5,20,0,-1,1,-1,-1,1,-1,NaN
1,0.707994562637396,1,5.357,112,5,21,1,-1,-1,1,-1,-1,1,NaN
1,0.548856235002859,-1,5.245,112,5,22,0,1,-1,-1,1,-1,-1,NaN
1,0.711071223136969,-1,6.376,112,5,23,0,-1,1,-1,-1,1,-1,NaN
0,0.834860729580214,1,6.055,112,5,24,0,-1,-1,1,-1,-1,1,NaN
1,0.871444212198185,1,5.101,112,5,25,1,-1,-1,-1,1,-1,-1,NaN
1,1.00564093239063,1,6.451,112,5,26,1,1,-1,-1,1,1,-1,NaN
1,0.692942134736768,-1,6.323,112,5,27,0,1,1,-1,1,1,1,NaN
1,1.10537460363139,-1,5.184,112,5,28,0,-1,1,1,-1,1,1,NaN
1,0.805581165536751,-1,5.908,112,5,29,0,-1,-1,1,-1,-1,1,NaN
1,1.21905112356217,1,5.174,112,5,30,1,-1,-1,-1,-1,-1,-1,NaN
1,1.15015376231622,1,6.135,112,5,31,1,1,-1,-1,1,-1,-1,NaN
1,0.958736942223368,-1,5.387,112,5,32,0,1,1,-1,1,1,-1,NaN
1,0.836758220933916,1,6.419,112,5,33,1,-1,1,1,-1,1,1,NaN
1,0.64128582977537,-1,6.479,112,5,34,0,1,-1,1,1,-1,1,NaN
1,0.631581637583622,-1,5.619,112,5,35,0,-1,1,-1,-1,1,-1,NaN
1,0.771932336499958,1,6.199,112,5,36,1,-1,-1,1,-1,-1,1,NaN
1,1.12895289341031,1,6.444,112,5,37,1,1,-1,-1,1,-1,-1,NaN
1,0.766866677889993,1,5.062,112,5,38,1,1,1,-1,1,1,-1,NaN
1,0.776941732318846,-1,5.465,112,5,39,0,1,1,1,1,1,1,NaN
1,0.658352033984556,1,6.495,112,5,40,1,-1,1,1,-1,1,1,NaN
1,0.782878670946957,-1,6.302,112,5,41,0,1,-1,1,1,-1,1,NaN
1,0.841855119940192,-1,5.237,112,5,42,0,-1,1,-1,-1,1,-1,NaN
1,0.919836967394986,1,6.317,112,5,43,1,-1,-1,1,-1,-1,1,NaN
1,0.810194172970114,-1,5.198,112,5,44,0,1,-1,-1,1,-1,-1,NaN
0,0.724594702552167,-1,5.694,112,5,45,1,-1,1,-1,-1,1,-1,NaN
1,0.830900902250505,1,5.481,112,5,46,1,1,-1,1,-1,-1,1,NaN
1,0.726042339703781,-1,5.313,112,5,47,0,1,1,-1,1,-1,-1,NaN
1,0.793540845761527,1,5.735,112,5,48,1,-1,1,1,-1,1,-1,NaN
1,0.706253175526399,-1,5.806,112,5,49,0,1,-1,1,1,-1,1,NaN
0,0.836202292237431,1,5.313,112,5,50,0,-1,1,-1,-1,1,-1,NaN
1,0.609388448260688,1,5.202,112,5,51,1,-1,-1,1,1,-1,1,NaN
1,0.687068500368696,-1,5.767,112,5,52,0,1,-1,-1,1,1,-1,NaN
1,1.15945368614848,1,5.243,112,5,53,1,-1,1,-1,-1,1,1,NaN
0,0.646217143398644,1,6.303,112,5,54,0,1,-1,1,1,-1,1,NaN
1,0.57310381690877,1,5.12,112,5,55,1,-1,1,-1,1,1,-1,NaN
1,0.585126181915257,-1,5.904,112,5,56,0,1,-1,1,1,1,1,NaN
1,0.68780330759455,-1,6.154,112,5,57,0,-1,1,-1,-1,1,1,NaN
1,0.738976356480634,-1,6.131,112,5,58,0,-1,-1,1,-1,-1,1,NaN
1,0.661863360487587,1,5.433,112,5,59,1,-1,-1,-1,-1,-1,-1,NaN
1,0.690105439322906,1,6.305,112,5,60,1,1,-1,-1,1,-1,-1,NaN
1,0.554515013631317,-1,5.379,112,5,61,0,1,1,-1,1,1,-1,NaN
1,0.911670840007901,-1,6.155,112,5,62,0,-1,1,1,-1,1,1,NaN
1,0.671082721263701,-1,6.119,112,5,63,0,-1,-1,1,-1,-1,1,NaN
1,0.824194133741912,-1,5.768,112,5,64,0,-1,-1,-1,-1,-1,-1,NaN
1,0.656505053579167,1,6.356,112,5,65,1,-1,-1,-1,-1,-1,-1,NaN
1,1.17272166706971,1,6.36,112,5,66,1,1,-1,-1,1,-1,-1,NaN
0,0.867709285325873,1,5.653,112,5,67,0,1,1,-1,1,1,-1,NaN
1,1.07256007773685,1,6.251,112,5,68,1,-1,1,1,1,1,1,NaN
1,0.675409024132023,1,5.002,112,5,69,1,1,-1,1,1,1,1,NaN
1,0.770111826010179,1,5.231,112,5,70,1,1,1,-1,1,1,1,NaN
1,0.724906666513562,1,5.968,112,5,71,1,1,1,1,1,1,1,NaN
1,0.673966462134558,-1,6.111,112,5,72,0,1,1,1,1,1,1,NaN
0,1.46816958895306,-1,5.074,112,5,73,1,-1,1,1,-1,1,1,NaN
0,0.814918089126877,-1,6.3,112,5,74,1,1,-1,1,-1,-1,1,NaN
1,0.626458629887566,-1,6.046,112,5,75,0,1,1,-1,-1,-1,-1,NaN
1,0.997551602146814,-1,6.106,112,5,76,0,-1,1,1,-1,-1,-1,NaN
1,0.703320307810827,1,5.645,112,5,77,1,-1,-1,1,-1,-1,-1,NaN
1,1.080851891782,1,5.068,112,5,78,1,1,-1,-1,1,-1,-1,NaN
1,0.837607004858,1,5.94,112,5,79,1,1,1,-1,1,1,-1,NaN
1,1.10354711182026,-1,5.57,112,5,80,0,1,1,1,1,1,1,NaN
1,0.737429998169318,1,5.904,112,5,81,1,-1,1,1,-1,1,1,NaN
1,1.03916889363245,1,6.411,112,5,82,1,1,-1,1,1,-1,1,NaN
1,0.783120936116575,1,5.794,112,5,83,1,1,1,-1,1,1,-1,NaN
1,0.881495123929199,-1,6.359,112,5,84,0,1,1,1,1,1,1,NaN
0,0.75146005289298,-1,6.456,112,5,85,1,-1,1,1,-1,1,1,NaN
0,1.13970184536174,1,5.306,112,5,86,0,1,-1,1,-1,-1,1,NaN
1,0.583153055880757,1,5.196,112,5,87,1,-1,1,-1,1,-1,-1,NaN
1,0.592694185065739,1,5.035,112,5,88,1,1,-1,1,1,1,-1,NaN
1,0.653355393556922,-1,5.8,112,5,89,0,1,1,-1,1,1,1,NaN
1,0.574125490843471,1,5.225,112,5,90,1,-1,1,1,-1,1,1,NaN
1,0.731056554713177,1,5.363,112,5,91,1,1,-1,1,1,-1,1,NaN
1,1.46305481788295,1,5.65,112,5,92,1,1,1,-1,1,1,-1,NaN
1,0.84143062287967,-1,5.09,112,5,93,0,1,1,1,1,1,1,NaN
1,0.849410250994879,1,6.013,112,5,94,1,-1,1,1,-1,1,1,NaN
1,0.846340748671537,1,5.439,112,5,95,1,1,-1,1,1,-1,1,NaN
0,1.38700022490866,1,5.801,112,5,96,0,1,1,-1,1,1,-1,NaN
0,1.22590109021894,1,5.549,112,5,97,0,-1,1,1,1,1,1,NaN
0,1.24350621571648,-1,5.314,112,5,98,1,-1,-1,1,1,1,1,NaN
1,1.01003938875874,-1,6.29,112,5,99,0,1,-1,-1,-1,1,1,NaN
1,1.05468277716409,1,5.292,112,5,100,1,-1,1,-1,-1,-1,1,NaN
1,0.608767844498743,-1,6.439,113,1,2,0,1,1,-1,1,1,-1,NaN
1,0.68825014465483,1,6.416,113,1,3,1,-1,1,1,-1,1,1,NaN
1,0.761412623692195,1,5.708,113,1,4,1,1,-1,1,1,-1,1,NaN
1,0.800180801305032,1,5.577,113,1,5,1,1,1,-1,1,1,-1,NaN
1,0.730435495470829,1,5.733,113,1,6,1,1,1,1,1,1,1,NaN
1,0.758497234726292,-1,6.364,113,1,7,0,1,1,1,1,1,1,NaN
1,0.729815783210597,-1,5.317,113,1,8,0,-1,1,1,-1,1,1,NaN
1,0.77268006054237,-1,6.142,113,1,9,0,-1,-1,1,-1,-1,1,NaN
0,0.868139192091803,1,5.035,113,1,10,0,-1,-1,-1,-1,-1,-1,NaN
0,0.619977131163523,1,5.541,113,1,11,0,-1,-1,-1,1,-1,-1,NaN
1,0.967147158067291,-1,5.256,113,1,12,0,-1,-1,-1,1,1,-1,NaN
1,1.06822527124768,-1,5.845,113,1,13,0,-1,-1,-1,-1,1,1,NaN
0,0.964248949169814,1,5.757,113,1,14,0,-1,-1,-1,-1,-1,1,NaN
1,0.868285480923532,1,5.079,113,1,15,1,-1,-1,-1,1,-1,-1,NaN
1,1.07784876218102,-1,5.978,113,1,16,0,1,-1,-1,1,1,-1,NaN
1,0.714248574865451,-1,5.581,113,1,17,0,-1,1,-1,-1,1,1,NaN
1,0.692922516761882,-1,5.778,113,1,18,0,-1,-1,1,-1,-1,1,NaN
0,0.813856643816052,1,5.282,113,1,19,0,-1,-1,-1,-1,-1,-1,NaN
1,0.757712289923802,-1,5.564,113,1,20,0,-1,-1,-1,1,-1,-1,NaN
1,0.693225598477966,-1,5.438,113,1,21,0,-1,-1,-1,-1,1,-1,NaN
1,0.71886405242185,-1,5.381,113,1,22,0,-1,-1,-1,-1,-1,1,NaN
1,0.675453506200029,-1,6.417,113,1,23,0,-1,-1,-1,-1,-1,-1,NaN
1,0.710288903599576,1,5.273,113,1,24,1,-1,-1,-1,-1,-1,-1,NaN
1,0.632785690795572,-1,5.951,113,1,25,0,1,-1,-1,1,-1,-1,NaN
1,0.724647743877995,-1,5.568,113,1,26,0,-1,1,-1,-1,1,-1,NaN
1,1.05709698399141,1,6.156,113,1,27,1,-1,-1,1,-1,-1,1,NaN
1,0.653345616065508,-1,5.421,113,1,28,0,1,-1,-1,1,-1,-1,NaN
1,1.03709700818263,1,6.165,113,1,29,1,-1,1,-1,-1,1,-1,NaN
1,0.594071445336795,-1,6.155,113,1,30,0,1,-1,1,1,-1,1,NaN
1,0.938785487461701,1,6.03,113,1,31,1,-1,1,-1,-1,1,-1,NaN
0,0.662324218292724,1,6.269,113,1,32,0,1,-1,1,1,-1,1,NaN
1,0.640583112510285,-1,5.326,113,1,33,0,-1,1,-1,1,1,-1,NaN
1,0.830830054821945,1,6.42,113,1,34,1,-1,-1,1,-1,1,1,NaN
0,0.690520062046289,1,6.44,113,1,35,0,1,-1,-1,1,-1,1,NaN
1,0.637038928934544,1,6.49,113,1,36,1,-1,1,-1,1,1,-1,NaN
1,0.787815341891474,1,5.674,113,1,37,1,1,-1,1,1,1,1,NaN
1,0.633492605777974,1,5.099,113,1,38,1,1,1,-1,1,1,1,NaN
1,0.823537093700452,-1,5.036,113,1,39,0,1,1,1,1,1,1,NaN
1,0.836412634152566,1,5.722,113,1,40,1,-1,1,1,-1,1,1,NaN
1,0.752733945295404,1,5.948,113,1,41,1,1,-1,1,1,-1,1,NaN
1,0.576947223121351,-1,5.583,113,1,42,0,1,1,-1,1,1,-1,NaN
0,1.0088533787075,-1,5.11,113,1,43,1,-1,1,1,-1,1,1,NaN
1,0.712200476297767,1,6.178,113,1,44,1,1,-1,1,-1,-1,1,NaN
1,0.932571127913434,1,5.526,113,1,45,1,1,1,-1,1,-1,-1,NaN
1,0.980159585291403,1,5.5,113,1,47,1,1,1,1,-1,1,1,NaN
1,0.991467040970747,1,5.403,113,1,48,1,1,1,1,1,-1,1,NaN
1,0.820757177649284,-1,5.85,113,1,49,0,1,1,1,1,1,-1,NaN
1,0.57453936240745,1,5.941,113,1,50,1,-1,1,1,-1,1,1,NaN
0,0.701141452300362,-1,6.133,113,1,51,1,1,-1,1,1,-1,1,NaN
1,0.793359688591408,1,5.307,113,1,52,1,1,1,-1,-1,1,-1,NaN
1,0.766317103899382,-1,5.66,113,1,53,0,1,1,1,1,-1,1,NaN
0,0.914941907675711,-1,5.805,113,1,54,1,-1,1,1,-1,1,-1,NaN
1,1.08799612358234,-1,5.864,113,1,55,0,1,-1,1,-1,-1,1,NaN
1,0.752484017704774,-1,5.102,113,1,57,0,-1,-1,1,1,-1,-1,NaN
0,0.937768862802841,1,6.104,113,1,58,0,-1,-1,-1,-1,1,-1,NaN
0,0.872625365395834,-1,6.035,113,1,59,1,-1,-1,-1,1,-1,1,NaN
1,0.724221812939504,1,5.701,113,1,60,1,1,-1,-1,-1,1,-1,NaN
1,0.807158692191479,-1,6.373,113,1,61,0,1,1,-1,1,-1,1,NaN
1,0.720874376677784,1,6.308,113,1,62,1,-1,1,1,-1,1,-1,NaN
0,0.7187399848317,1,5.062,113,1,63,0,1,-1,1,1,-1,1,NaN
1,0.609676285138448,1,5.861,113,1,64,1,-1,1,-1,1,1,-1,NaN
1,0.563533342159644,-1,5.734,113,1,65,0,1,-1,1,1,1,1,NaN
1,0.857822346118155,1,5.708,113,1,66,1,-1,1,-1,-1,1,1,NaN
0,1.03441086299154,-1,5.995,113,1,67,1,1,-1,1,1,-1,1,NaN
1,0.814348781468652,-1,5.927,113,1,68,0,1,1,-1,-1,1,-1,NaN
1,1.33408854106438,1,6.092,113,1,69,1,-1,1,1,-1,-1,1,NaN
1,1.25275866407719,-1,6.177,113,1,70,0,1,-1,1,1,-1,-1,NaN
1,0.782908045740442,1,5.673,113,1,71,1,-1,1,-1,-1,1,-1,NaN
0,0.935578892844205,-1,5.579,113,1,72,1,1,-1,1,1,-1,1,NaN
1,0.728427998274128,-1,5.469,113,1,73,0,1,1,-1,-1,1,-1,NaN
1,1.23993074720329,1,5.773,113,1,74,1,-1,1,1,-1,-1,1,NaN
1,0.785356895204131,1,6.433,113,1,75,1,1,-1,1,1,-1,-1,NaN
1,0.794624214369833,-1,5.326,113,1,76,0,1,1,-1,1,1,-1,NaN
0,1.26601113955167,-1,6.227,113,1,77,1,-1,1,1,-1,1,1,NaN
0,0.682562201169276,1,5.404,113,1,78,0,1,-1,1,-1,-1,1,NaN
1,0.736111183683533,-1,6.37,113,1,79,0,-1,1,-1,1,-1,-1,NaN
1,0.874360156717557,1,5.693,113,1,80,1,-1,-1,1,-1,1,-1,NaN
1,0.64787913409873,-1,5.931,113,1,81,0,1,-1,-1,1,-1,1,NaN
1,1.02901509082949,1,5.883,113,1,82,1,-1,1,-1,-1,1,-1,NaN
1,0.608397394582425,-1,5.918,113,1,83,0,1,-1,1,1,-1,1,NaN
1,0.841128291833229,1,5.555,113,1,84,1,-1,1,-1,-1,1,-1,NaN
1,0.986665556503795,1,5.008,113,1,85,1,1,-1,1,1,-1,1,NaN
1,1.34960405425227,1,6.109,113,1,86,1,1,1,-1,1,1,-1,NaN
1,1.35286185171026,-1,5.363,113,1,87,0,1,1,1,1,1,1,NaN
1,0.643254709203575,1,5.422,113,1,88,1,-1,1,1,-1,1,1,NaN
0,0.535145115250089,-1,5.023,113,1,90,1,1,1,-1,-1,1,-1,NaN
0,0.698832245399899,-1,5.219,113,1,91,1,1,1,1,-1,-1,1,NaN
0,0.569759742857968,1,5.689,113,1,92,0,1,1,1,-1,-1,-1,NaN
1,0.80243737679757,1,6.096,113,1,93,1,-1,1,1,1,-1,-1,NaN
1,0.981023627578907,1,6.141,113,1,94,1,1,-1,1,1,1,-1,NaN
1,0.718652801069766,1,5.024,113,1,95,1,1,1,-1,1,1,1,NaN
0,0.881633715809585,-1,6.024,113,1,96,1,1,1,1,1,1,1,NaN
1,0.90244319273188,-1,6.494,113,1,97,0,1,1,1,-1,1,1,NaN
1,0.666728260450327,-1,5.766,113,1,98,0,-1,1,1,-1,-1,1,NaN
1,0.675241104801898,-1,6.281,113,1,99,0,-1,-1,1,-1,-1,-1,NaN
1,0.862999934618529,-1,5.673,113,1,100,0,-1,-1,-1,-1,-1,-1,NaN
1,0.725567079218308,-1,5.988,113,2,2,0,1,-1,-1,1,-1,-1,NaN
1,0.637323822413236,1,5.185,113,2,3,1,-1,1,-1,-1,1,-1,NaN
1,0.938373421139659,1,5.913,113,2,4,1,1,-1,1,1,-1,1,NaN
1,0.544890752564243,-1,6.246,113,2,5,0,1,1,-1,1,1,-1,NaN
1,0.563352090708577,-1,5.908,113,2,6,0,-1,1,1,-1,1,1,NaN
0,1.03518554826587,1,5.096,113,2,7,0,-1,-1,1,-1,-1,1,NaN
0,1.0608595359281,-1,5.42,113,2,8,1,-1,-1,-1,1,-1,-1,NaN
1,0.636477983072837,-1,5.372,113,2,9,0,1,-1,-1,-1,1,-1,NaN
1,0.651122766189474,-1,5.525,113,2,10,0,-1,1,-1,-1,-1,1,NaN
1,0.598137548422528,-1,6.281,113,2,11,0,-1,-1,1,-1,-1,-1,NaN
0,0.729242770373276,1,6.301,113,2,12,0,-1,-1,-1,-1,-1,-1,NaN
1,0.642016044079355,-1,5.346,113,2,13,0,-1,-1,-1,1,-1,-1,NaN
1,0.743856354180025,-1,5.732,113,2,14,0,-1,-1,-1,-1,1,-1,NaN
1,0.709273647356895,-1,6.267,113,2,15,0,-1,-1,-1,-1,-1,1,NaN
0,0.74310396533474,1,5.43,113,2,16,0,-1,-1,-1,-1,-1,-1,NaN
1,0.643235573927996,-1,5.449,113,2,17,0,-1,-1,-1,1,-1,-1,NaN
0,1.31011855927227,1,5.279,113,2,18,0,-1,-1,-1,-1,1,-1,NaN
1,0.743960921343387,-1,6.111,113,2,19,0,-1,-1,-1,1,-1,1,NaN
0,0.832220163058992,1,6.362,113,2,20,0,-1,-1,-1,-1,1,-1,NaN
1,0.89910210198741,-1,5.48,113,2,21,0,-1,-1,-1,1,-1,1,NaN
0,0.593180346582812,1,5.503,113,2,22,0,-1,-1,-1,-1,1,-1,NaN
1,0.637133631468714,-1,6.023,113,2,23,0,-1,-1,-1,1,-1,1,NaN
1,0.953700435108658,1,6,113,2,24,1,-1,-1,-1,-1,1,-1,NaN
1,0.675451611468816,-1,5.348,113,2,25,0,1,-1,-1,1,-1,1,NaN
1,0.859008455023286,1,5.636,113,2,26,1,-1,1,-1,-1,1,-1,NaN
1,0.587754571250116,-1,5.77,113,2,27,0,1,-1,1,1,-1,1,NaN
0,0.922240733112631,1,5.122,113,2,28,0,-1,1,-1,-1,1,-1,NaN
0,0.91772530066919,1,5.885,113,2,29,0,-1,-1,1,1,-1,1,NaN
0,0.690177612365005,1,5.934,113,2,30,0,-1,-1,-1,1,1,-1,NaN
1,1.37722211794062,1,5.635,113,2,31,1,-1,-1,-1,1,1,1,NaN
1,1.22454271120387,-1,6.261,113,2,32,0,1,-1,-1,1,1,1,NaN
1,1.3347111555704,-1,5.209,113,2,33,0,-1,1,-1,-1,1,1,NaN
1,0.864275663368971,-1,5.551,113,2,34,0,-1,-1,1,-1,-1,1,NaN
1,0.856731218270397,1,6.328,113,2,35,1,-1,-1,-1,-1,-1,-1,NaN
1,1.06692806104002,1,5.001,113,2,36,1,1,-1,-1,1,-1,-1,NaN
0,1.0387125252937,1,5.419,113,2,37,0,1,1,-1,1,1,-1,NaN
0,0.838221038178744,-1,6.257,113,2,38,1,-1,1,1,1,1,1,NaN
0,0.870243824309,1,5.474,113,2,39,0,1,-1,1,-1,1,1,NaN
1,1.00073492404408,1,5.179,113,2,40,1,-1,1,-1,1,-1,1,NaN
1,0.961093579949193,-1,5.375,113,2,41,0,1,-1,1,1,1,-1,NaN
1,0.832038167250175,-1,5.656,113,2,42,0,-1,1,-1,-1,1,1,NaN
1,0.617970972308285,1,5.56,113,2,43,1,-1,-1,1,-1,-1,1,NaN
1,0.897988398861344,1,5.928,113,2,44,1,1,-1,-1,1,-1,-1,NaN
1,0.981729087515305,-1,5.731,113,2,45,0,1,1,-1,1,1,-1,NaN
1,0.977949517327943,1,5.03,113,2,46,1,-1,1,1,-1,1,1,NaN
0,1.27742041412148,-1,5.483,113,2,47,1,1,-1,1,1,-1,1,NaN
1,0.908048843580218,-1,6.374,113,2,48,0,1,1,-1,-1,1,-1,NaN
1,1.23844719566205,-1,5.333,113,2,49,0,-1,1,1,-1,-1,1,NaN
1,1.05799554888654,-1,6.039,113,2,50,0,-1,-1,1,-1,-1,-1,NaN
1,0.870819912652223,-1,5.665,113,2,51,0,-1,-1,-1,-1,-1,-1,NaN
1,0.926788613309327,-1,5.609,113,2,52,0,-1,-1,-1,-1,-1,-1,NaN
1,1.09996467844121,1,5.736,113,2,53,1,-1,-1,-1,-1,-1,-1,NaN
1,1.14027677974263,1,5.341,113,2,54,1,1,-1,-1,1,-1,-1,NaN
0,0.966439254202669,-1,6.432,113,2,55,1,1,1,-1,1,1,-1,NaN
0,1.14694842350946,-1,5.951,113,2,56,1,1,1,1,-1,1,1,NaN
0,0.657612872792015,1,6.457,113,2,57,0,1,1,1,-1,-1,1,NaN
1,0.770617709978069,1,5.697,113,2,58,1,-1,1,1,1,-1,-1,NaN
1,0.76099731677914,-1,5.905,113,2,59,0,1,-1,1,1,1,-1,NaN
1,0.870959735339056,1,5.473,113,2,60,1,-1,1,-1,-1,1,1,NaN
1,0.784087395268216,1,5.027,113,2,61,1,1,-1,1,1,-1,1,NaN
1,1.04618623410806,1,5.49,113,2,62,1,1,1,-1,1,1,-1,NaN
1,0.650118566463789,-1,6.378,113,2,63,0,1,1,1,1,1,1,NaN
1,0.799431660897426,-1,5.591,113,2,64,0,-1,1,1,-1,1,1,NaN
1,0.716412282077727,-1,5.458,113,2,65,0,-1,-1,1,-1,-1,1,NaN
1,1.21751538471653,1,6.289,113,2,66,1,-1,-1,-1,-1,-1,-1,NaN
1,0.888432903782814,-1,6.29,113,2,67,0,1,-1,-1,1,-1,-1,NaN
1,0.937613995050015,-1,6.38,113,2,68,0,-1,1,-1,-1,1,-1,NaN
1,1.11532510191228,-1,6.27,113,2,69,0,-1,-1,1,-1,-1,1,NaN
0,0.773546486281703,1,5.511,113,2,70,0,-1,-1,-1,-1,-1,-1,NaN
1,0.947015716194983,-1,6.232,113,2,71,0,-1,-1,-1,1,-1,-1,NaN
1,0.677731727912033,1,5.474,113,2,72,1,-1,-1,-1,-1,1,-1,NaN
1,0.699577201774446,-1,5.169,113,2,73,0,1,-1,-1,1,-1,1,NaN
1,0.653230078685738,-1,5.246,113,2,74,0,-1,1,-1,-1,1,-1,NaN
1,0.961057967447232,1,5.553,113,2,75,1,-1,-1,1,-1,-1,1,NaN
0,0.921731836443541,-1,6.27,113,2,76,1,1,-1,-1,1,-1,-1,NaN
0,0.940868454172232,1,5.435,113,2,77,0,1,1,-1,-1,1,-1,NaN
0,1.12338931255545,-1,6.301,113,2,78,1,-1,1,1,1,-1,1,NaN
1,0.742575275660784,1,6.235,113,2,79,1,1,-1,1,-1,1,-1,NaN
1,1.37750751942622,-1,5.397,113,2,80,0,1,1,-1,1,-1,1,NaN
1,0.826636489256089,1,6.245,113,2,81,1,-1,1,1,-1,1,-1,NaN
1,1.30058862442456,1,6.465,113,2,82,1,1,-1,1,1,-1,1,NaN
1,1.11391412548437,1,5.695,113,2,83,1,1,1,-1,1,1,-1,NaN
1,0.863118170911548,1,5.766,113,2,84,1,1,1,1,1,1,1,NaN
1,1.04335281120439,1,5.992,113,2,85,1,1,1,1,1,1,1,NaN
1,1.0683073236105,1,6.493,113,2,86,1,1,1,1,1,1,1,NaN
1,0.952129947597314,1,5.266,113,2,87,1,1,1,1,1,1,1,NaN
1,1.12508023935789,1,5.028,113,2,88,1,1,1,1,1,1,1,NaN
1,0.810876762743646,-1,6.295,113,2,89,0,1,1,1,1,1,1,NaN
1,1.08326630445754,1,6.426,113,2,90,1,-1,1,1,-1,1,1,NaN
0,0.901941626540065,-1,6.295,113,2,91,1,1,-1,1,1,-1,1,NaN
0,1.06647034824982,-1,5.986,113,2,92,1,1,1,-1,-1,1,-1,NaN
1,1.30855669219727,1,5.207,113,2,93,1,1,1,1,-1,-1,1,NaN
1,1.08366975426725,1,5.432,113,2,94,1,1,1,1,1,-1,-1,NaN
1,1.14319293594963,1,5.613,113,2,95,1,1,1,1,1,1,-1,NaN
0,0.895096201712477,-1,5.364,113,2,96,1,1,1,1,1,1,1,NaN
1,1.26139226383748,-1,5.515,113,2,97,0,1,1,1,-1,1,1,NaN
1,1.34448682286074,1,6.496,113,2,98,1,-1,1,1,-1,-1,1,NaN
1,1.35065286285408,-1,5.528,113,2,99,0,1,-1,1,1,-1,-1,NaN
0,1.51559945537974,1,5.43,113,2,100,0,-1,1,-1,-1,1,-1,NaN
0,0.936593043500579,-1,5.19,113,3,2,1,1,-1,-1,-1,1,-1,NaN
0,1.36832010944727,-1,5.618,113,3,3,1,1,1,-1,-1,-1,1,NaN
1,1.30846124890104,-1,5.464,113,3,4,0,1,1,1,-1,-1,-1,NaN
1,0.843387077518855,1,5.663,113,3,5,1,-1,1,1,-1,-1,-1,NaN
1,0.97921044553641,1,6.143,113,3,6,1,1,-1,1,1,-1,-1,NaN
1,1.20154451570852,1,5.319,113,3,7,1,1,1,-1,1,1,-1,NaN
0,0.787550196305347,-1,6.227,113,3,8,1,1,1,1,1,1,1,NaN
1,1.18469246553559,-1,6.418,113,3,9,0,1,1,1,-1,1,1,NaN
1,0.760661708854059,1,6.088,113,3,11,1,-1,-1,1,1,-1,-1,NaN
1,0.738061365605063,1,6.078,113,3,12,1,1,-1,-1,1,1,-1,NaN
1,0.864752082863561,1,5.745,113,3,13,1,1,1,-1,1,1,1,NaN
0,1.29857699942113,-1,5.87,113,3,14,1,1,1,1,1,1,1,NaN
1,1.07320662305847,-1,6.339,113,3,15,0,1,1,1,-1,1,1,NaN
0,0.704585663008402,-1,5.229,113,3,16,1,-1,1,1,-1,-1,1,NaN
1,0.827520576592178,-1,5.558,113,3,17,0,1,-1,1,-1,-1,-1,NaN
1,1.23455665231631,1,5.336,113,3,18,1,-1,1,-1,-1,-1,-1,NaN
1,1.27261040369285,1,6.043,113,3,19,1,1,-1,1,1,-1,-1,NaN
0,1.15113487598956,-1,6.03,113,3,20,1,1,1,-1,1,1,-1,NaN
0,1.39836393604492,-1,5.882,113,3,21,1,1,1,1,-1,1,1,NaN
1,1.41259221676319,-1,5.498,113,3,22,0,1,1,1,-1,-1,1,NaN
0,1.34478140084593,1,5.633,113,3,23,0,-1,1,1,-1,-1,-1,NaN
1,1.47749416249098,1,5.714,113,3,24,1,-1,-1,1,1,-1,-1,NaN
0,0.777450394408334,-1,5.412,113,3,25,1,1,-1,-1,1,1,-1,NaN
1,1.06275660491428,1,6.348,113,3,26,1,1,1,-1,-1,1,1,NaN
1,1.29789446389532,1,6.163,113,3,27,1,1,1,1,1,-1,1,NaN
1,0.730022673675194,1,5.464,113,3,28,1,1,1,1,1,1,-1,NaN
0,0.893886040254984,-1,6.027,113,3,29,1,1,1,1,1,1,1,NaN
1,0.782073653894258,-1,6.485,113,3,30,0,1,1,1,-1,1,1,NaN
0,1.11079226351012,1,5.605,113,3,31,0,-1,1,1,-1,-1,1,NaN
1,0.91985759837371,1,6.048,113,3,32,1,-1,-1,1,1,-1,-1,NaN
0,0.995559016152583,-1,5.36,113,3,33,1,1,-1,-1,1,1,-1,NaN
1,1.43261731671373,-1,5.065,113,3,34,0,1,1,-1,-1,1,1,NaN
1,0.941168378004477,-1,5.364,113,3,35,0,-1,1,1,-1,-1,1,NaN
0,0.910006134337891,1,5.85,113,3,36,0,-1,-1,1,-1,-1,-1,NaN
1,1.10989487906227,1,5.048,113,3,37,1,-1,-1,-1,1,-1,-1,NaN
1,0.908058945214179,1,5.936,113,3,38,1,1,-1,-1,1,1,-1,NaN
0,1.5091313637422,1,5.082,113,3,39,0,1,1,-1,1,1,1,NaN
1,0.773674827803006,1,5.916,113,3,40,1,-1,1,1,1,1,1,NaN
0,1.12758165223386,-1,5.163,113,3,41,1,1,-1,1,1,1,1,NaN
1,1.22806191022664,1,6.282,113,3,42,1,1,1,-1,-1,1,1,NaN
1,1.19663003553433,1,6.405,113,3,43,1,1,1,1,1,-1,1,NaN
1,1.19067430312407,1,6.271,113,3,44,1,1,1,1,1,1,-1,NaN
0,0.906450134521037,-1,6.411,113,3,45,1,1,1,1,1,1,1,NaN
1,0.900252951772018,1,5.418,113,3,46,1,1,1,1,-1,1,1,NaN
1,1.07346765979855,-1,6.176,113,3,47,0,1,1,1,1,-1,1,NaN
1,0.850866804946236,1,5.985,113,3,48,1,-1,1,1,-1,1,-1,NaN
1,1.27608925305867,1,5.337,113,3,49,1,1,-1,1,1,-1,1,NaN
1,0.970416594584094,1,5.895,113,3,50,1,1,1,-1,1,1,-1,NaN
1,1.1151248583692,-1,5.642,113,3,51,0,1,1,1,1,1,1,NaN
1,0.933126923089731,-1,5.684,113,3,52,0,-1,1,1,-1,1,1,NaN
1,0.740523173183647,1,6.292,113,3,53,1,-1,-1,1,-1,-1,1,NaN
1,1.16985001029752,1,5.542,113,3,54,1,1,-1,-1,1,-1,-1,NaN
1,0.949489963746601,1,5.832,113,3,55,1,1,1,-1,1,1,-1,NaN
